"Subject","Detailed_Condition","Score","Trials","Lexical.ACC","Lexical.RT_mean","Lexical.RT_sd","Penalty","Reward","TestDuration","Load_Condition","Speed_Condition","Lexical.Correct_Trials","Lexical.Correct_RT_mean","Lexical.Correct_RT_sd","Lexical.Incorrect_Trials","Lexical.Incorrect_RT_mean","Lexical.Incorrect_RT_sd"
19001,"Load_Accuracy_Max",820,41,1,887.975609756098,340.085686835309,80,20,60,"Load","Accuracy_Max",41,887.975609756098,340.085686835309,0,NA,NA
19001,"Load_Accuracy_Mid",680,46,0.91304347826087,721.5,272.852727879182,40,20,60,"Load","Accuracy_Mid",42,735.857142857143,280.163764951211,4,570.75,104.030043737374
19001,"Load_Neutral",830,45.5,0.956280193236715,726.424637681159,244.702107790458,20,20,60,"Load","Neutral",87,723.436781609195,247.22937758893,4,788.5,164.921193301528
19001,"Load_Speed_Max",845,46,0.934782608695652,704.108695652174,271.234726411634,5,20,60,"Load","Speed_Max",43,696.488372093023,264.509462617037,3,813.333333333333,408.500101999171
19001,"Load_Speed_Mid",780,42,0.952380952380952,853.119047619048,269.645856487768,10,20,60,"Load","Speed_Mid",40,861.35,273.703709351592,2,688.5,50.2045814642449
19001,"NoLoad_Accuracy_Max",880,54,0.962962962962963,551.740740740741,110.950810992161,80,20,60,"NoLoad","Accuracy_Max",52,553.557692307692,112.530155167498,2,504.5,44.5477272147525
19001,"NoLoad_Accuracy_Mid",860,55,0.927272727272727,552.236363636364,136.292708377603,40,20,60,"NoLoad","Accuracy_Mid",51,557.56862745098,140.030318845879,4,484.25,30.1371863318393
19001,"NoLoad_Neutral",870,53.5,0.906468531468531,566.392132867133,153.87277573611,20,20,60,"NoLoad","Neutral",97,559.103092783505,141.81182400574,10,628.3,277.945258399323
19001,"NoLoad_Speed_Max",1045,56,0.946428571428571,525.785714285714,112.150501848788,5,20,60,"NoLoad","Speed_Max",53,529.22641509434,113.962315213514,3,465,48.5695377783236
19001,"NoLoad_Speed_Mid",930,54,0.907407407407407,568.777777777778,146.549839119366,10,20,60,"NoLoad","Speed_Mid",49,579.979591836735,148.990700184597,5,459,39.8559907667593
19002,"Load_Accuracy_Max",680,39,0.974358974358974,946.410256410256,404.239423449749,80,20,60,"Load","Accuracy_Max",38,949.342105263158,409.245269504321,1,835,NA
19002,"Load_Accuracy_Mid",560,37,0.918918918918919,1024.45945945946,545.951188019313,40,20,60,"Load","Accuracy_Mid",34,957.147058823529,343.733611827791,3,1787.33333333333,1570.22811506269
19002,"Load_Neutral",820,42,0.98780487804878,844.647192285876,288.304769551432,20,20,60,"Load","Neutral",83,840.168674698795,289.491978037772,1,1134,NA
19002,"Load_Speed_Max",890,47,0.957446808510638,713.063829787234,157.463371069249,5,20,60,"Load","Speed_Max",45,705.133333333333,149.968724012103,2,891.5,290.620887067671
19002,"Load_Speed_Mid",870,45,0.977777777777778,772.644444444444,227.741495755361,10,20,60,"Load","Speed_Mid",44,769.022727272727,229.059806208545,1,932,NA
19002,"NoLoad_Accuracy_Max",1020,51,1,624.921568627451,123.266839520977,80,20,60,"NoLoad","Accuracy_Max",51,624.921568627451,123.266839520977,0,NA,NA
19002,"NoLoad_Accuracy_Mid",920,49,0.979591836734694,672.204081632653,152.803247619261,40,20,60,"NoLoad","Accuracy_Mid",48,660.979166666667,132.439868263577,1,1211,NA
19002,"NoLoad_Neutral",980,53,0.962264150943396,590.594339622642,124.411237649641,20,20,60,"NoLoad","Neutral",102,593.343137254902,126.814395839117,4,520.5,125.712635270551
19002,"NoLoad_Speed_Max",985,53,0.943396226415094,591.811320754717,117.833823112788,5,20,60,"NoLoad","Speed_Max",50,580.7,108.93796212449,3,777,125.391387264038
19002,"NoLoad_Speed_Mid",1020,51,1,615.921568627451,117.379869336655,10,20,60,"NoLoad","Speed_Mid",51,615.921568627451,117.379869336655,0,NA,NA
19003,"Load_Accuracy_Max",900,45,1,757.066666666667,129.336488558826,80,20,60,"Load","Accuracy_Max",45,757.066666666667,129.336488558826,0,NA,NA
19003,"Load_Accuracy_Mid",1000,50,1,626.76,116.041435245681,40,20,60,"Load","Accuracy_Mid",50,626.76,116.041435245681,0,NA,NA
19003,"Load_Neutral",770,52.5,0.866835994194485,574.750362844703,118.934874160742,20,20,60,"Load","Neutral",91,573.692307692308,111.256929103334,14,580.928571428571,176.34165452575
19003,"Load_Speed_Max",900,55,0.854545454545454,515.018181818182,159.790081149207,5,20,60,"Load","Speed_Max",47,534.468085106383,163.407180282852,8,400.75,63.5267097931481
19003,"Load_Speed_Mid",730,50,0.82,636.16,183.168970725761,10,20,60,"Load","Speed_Mid",41,633.317073170732,190.551625422665,9,649.111111111111,154.010912311794
19003,"NoLoad_Accuracy_Max",420,46,0.891304347826087,738.826086956522,136.925820038577,80,20,60,"NoLoad","Accuracy_Max",41,733.560975609756,137.399790534864,5,782,139.719361578845
19003,"NoLoad_Accuracy_Mid",820,47,0.957446808510638,715.191489361702,131.525933679797,40,20,60,"NoLoad","Accuracy_Mid",45,712.333333333333,125.295831752479,2,779.5,310.419876940894
19003,"NoLoad_Neutral",890,50.5,0.943396226415094,640.511988993711,123.85405362801,20,20,60,"NoLoad","Neutral",95,644.294736842105,139.071149223959,6,528.666666666667,52.7509873525289
19003,"NoLoad_Speed_Max",665,57,0.666666666666667,493.333333333333,113.497849780346,5,20,60,"NoLoad","Speed_Max",38,512.657894736842,117.633713754452,19,454.684210526316,96.2670202160976
19003,"NoLoad_Speed_Mid",910,53,0.905660377358491,578.490566037736,125.975977966728,10,20,60,"NoLoad","Speed_Mid",48,583.770833333333,125.137922136887,5,527.8,136.980655568588
19005,"Load_Accuracy_Max",800,45,0.977777777777778,754.111111111111,218.799536959605,80,20,60,"Load","Accuracy_Max",44,759.75,217.996386251251,1,506,NA
19005,"Load_Accuracy_Mid",900,45,1,761.066666666667,354.139828573147,40,20,60,"Load","Accuracy_Mid",45,761.066666666667,354.139828573147,0,NA,NA
19005,"Load_Neutral",840,46,0.956521739130435,740.608695652174,216.742366959827,20,20,60,"Load","Neutral",88,736.897727272727,213.418860716943,4,822.25,318.855636090483
19005,"Load_Speed_Max",830,54,0.814814814814815,549.425925925926,190.001251421087,5,20,60,"Load","Speed_Max",44,574.75,198.860021471222,10,438,81.9905143565062
19005,"Load_Speed_Mid",790,53,0.830188679245283,570.490566037736,171.26706794692,10,20,60,"Load","Speed_Mid",44,597.113636363636,173.241089694571,9,440.333333333333,79.9171445936352
19005,"NoLoad_Accuracy_Max",700,50,0.94,648.82,240.967157555564,80,20,60,"NoLoad","Accuracy_Max",47,654.68085106383,247.118621963216,3,557,67.7347768875044
19005,"NoLoad_Accuracy_Mid",1020,51,1,625.705882352941,158.329693250211,40,20,60,"NoLoad","Accuracy_Mid",51,625.705882352941,158.329693250211,0,NA,NA
19005,"NoLoad_Neutral",960,51,0.971153846153846,630.716923076923,158.568132258579,20,20,60,"NoLoad","Neutral",99,630.737373737374,158.423585253146,3,618.666666666667,227.939319410525
19005,"NoLoad_Speed_Max",845,56,0.803571428571429,519.982142857143,120.636115664412,5,20,60,"NoLoad","Speed_Max",45,539.022222222222,119.10031846551,11,442.090909090909,96.5571898363395
19005,"NoLoad_Speed_Mid",700,56,0.75,521.928571428571,153.884827906263,10,20,60,"NoLoad","Speed_Mid",42,532.880952380952,154.128106738764,14,489.071428571429,153.998733404239
19006,"Load_Accuracy_Max",620,36,0.972222222222222,1095.52777777778,358.107923565836,80,20,60,"Load","Accuracy_Max",35,1098.91428571429,362.750714227097,1,977,NA
19006,"Load_Accuracy_Mid",780,42,0.976190476190476,843,293.657341379952,40,20,60,"Load","Accuracy_Mid",41,845.634146341463,296.802607476548,1,735,NA
19006,"Load_Neutral",750,39.5,0.973978919631094,981.079051383399,409.399025029021,20,20,60,"Load","Neutral",77,914.285714285714,454.803597204414,2,1911,69.2964645562817
19006,"Load_Speed_Max",735,43,0.883720930232558,831.674418604651,258.031995148833,5,20,60,"Load","Speed_Max",38,833.026315789474,266.067913179883,5,821.4,210.044757135235
19006,"Load_Speed_Mid",770,43,0.930232558139535,811.53488372093,292.767366516506,10,20,60,"Load","Speed_Mid",40,786.575,268.819059105677,3,1144.33333333333,460.687891455086
19006,"NoLoad_Accuracy_Max",320,41,0.878048780487805,884.634146341463,425.635099357276,80,20,60,"NoLoad","Accuracy_Max",36,806.138888888889,303.588269374143,5,1449.8,741.944876658637
19006,"NoLoad_Accuracy_Mid",540,39,0.897435897435897,972.692307692308,477.241258299701,40,20,60,"NoLoad","Accuracy_Mid",35,973.114285714286,496.129120493527,4,969,308.701581898549
19006,"NoLoad_Neutral",840,47,0.947165532879819,715.518820861678,248.63620079193,20,20,60,"NoLoad","Neutral",89,714.719101123595,262.038251404605,5,685.6,172.154872135528
19006,"NoLoad_Speed_Max",895,56,0.839285714285714,529.196428571429,128.514084073283,5,20,60,"NoLoad","Speed_Max",47,532.106382978723,126.934120886893,9,514,143.497386735787
19006,"NoLoad_Speed_Mid",840,48,0.916666666666667,708.666666666667,263.929659659969,10,20,60,"NoLoad","Speed_Mid",44,663.227272727273,166.077295486499,4,1208.5,576.707031342605
19007,"Load_Accuracy_Max",540,32,0.96875,1233.375,406.817526662753,80,20,60,"Load","Accuracy_Max",31,1203.25806451613,375.53259669807,1,2167,NA
19007,"Load_Accuracy_Mid",460,32,0.90625,1285.8125,536.175671591365,40,20,60,"Load","Accuracy_Mid",29,1278.51724137931,558.013416421509,3,1356.33333333333,297.439629729015
19007,"Load_Neutral",550,34.5,0.897727272727273,1157.64898989899,562.259341533735,20,20,60,"Load","Neutral",62,1149.43548387097,574.538863442239,7,1197,493.876502781819
19007,"Load_Speed_Max",590,32,0.9375,1286.78125,670.525395077284,5,20,60,"Load","Speed_Max",30,1264.3,681.648364703861,2,1624,469.518902707868
19007,"Load_Speed_Mid",570,33,0.909090909090909,1232.60606060606,674.161142615118,10,20,60,"Load","Speed_Mid",30,1238.93333333333,686.433508010456,3,1169.33333333333,658.040525601071
19007,"NoLoad_Accuracy_Max",580,44,0.931818181818182,817.5,313.77569384277,80,20,60,"NoLoad","Accuracy_Max",41,792.463414634146,287.077437075868,3,1159.66666666667,529.197820605238
19007,"NoLoad_Accuracy_Mid",500,49,0.836734693877551,668.061224489796,246.720524089105,40,20,60,"NoLoad","Accuracy_Mid",41,670.390243902439,254.771454253492,8,656.125,215.176630103869
19007,"NoLoad_Neutral",640,51,0.813823642664613,623.156911821332,204.769740936777,20,20,60,"NoLoad","Neutral",83,625.349397590361,220.078834751846,19,605.105263157895,194.421333630752
19007,"NoLoad_Speed_Max",525,46,0.5,420.195652173913,188.286379936429,5,20,60,"NoLoad","Speed_Max",23,472.086956521739,214.426701407917,23,368.304347826087,144.588895204994
19007,"NoLoad_Speed_Mid",840,54,0.851851851851852,562.333333333333,202.81220982187,10,20,60,"NoLoad","Speed_Mid",46,562.304347826087,194.154104837165,8,562.5,262.875853371348
19008,"Load_Accuracy_Max",560,28,1,1565.42857142857,793.886195247966,80,20,60,"Load","Accuracy_Max",28,1565.42857142857,793.886195247966,0,NA,NA
19008,"Load_Accuracy_Mid",420,21,1,2083.14285714286,989.494986632792,40,20,60,"Load","Accuracy_Mid",21,2083.14285714286,989.494986632792,0,NA,NA
19008,"Load_Neutral",420,21,1,2277.92677345538,1642.76230236948,20,20,60,"Load","Neutral",42,2251.33333333333,1690.51765295703,0,NA,NA
19008,"Load_Speed_Max",540,27,1,1626.96296296296,1165.46733714854,5,20,60,"Load","Speed_Max",27,1626.96296296296,1165.46733714854,0,NA,NA
19008,"Load_Speed_Mid",430,26,0.884615384615385,1567.03846153846,611.943819693882,10,20,60,"Load","Speed_Mid",23,1433.86956521739,502.633365779926,3,2588,366.623785371326
19008,"NoLoad_Accuracy_Max",420,36,0.916666666666667,1094.63888888889,723.979287500795,80,20,60,"NoLoad","Accuracy_Max",33,1014.51515151515,685.198836160539,3,1976,624.077719518971
19008,"NoLoad_Accuracy_Mid",820,44,0.977272727272727,820.772727272727,326.905566596011,40,20,60,"NoLoad","Accuracy_Mid",43,799.744186046512,299.151585481918,1,1725,NA
19008,"NoLoad_Neutral",780,45,0.934288537549407,781.242588932806,286.380615209578,20,20,60,"NoLoad","Neutral",84,776.678571428571,291.06949282906,6,832.333333333333,387.201067491641
19008,"NoLoad_Speed_Max",780,44,0.909090909090909,802.340909090909,402.089423305361,5,20,60,"NoLoad","Speed_Max",40,792.475,406.241054339378,4,901,397.070942443958
19008,"NoLoad_Speed_Mid",820,44,0.954545454545455,814.818181818182,307.58332376298,10,20,60,"NoLoad","Speed_Mid",42,798.47619047619,288.125162343342,2,1158,646.295598004504
19009,"Load_Accuracy_Max",640,37,0.972972972972973,1008.81081081081,547.038280086394,80,20,60,"Load","Accuracy_Max",36,960.194444444444,466.74500958045,1,2759,NA
19009,"Load_Accuracy_Mid",600,39,0.923076923076923,968.461538461538,421.865833383693,40,20,60,"Load","Accuracy_Mid",36,927.944444444444,370.024705309906,3,1454.66666666667,775.391728955973
19009,"Load_Neutral",590,31.5,0.972972972972973,1390.37474012474,756.557939622059,20,20,60,"Load","Neutral",61,1334.67213114754,821.774740451248,2,1238.5,478.711290863293
19009,"Load_Speed_Max",590,37,0.837837837837838,1041.97297297297,679.932859695495,5,20,60,"Load","Speed_Max",31,1084.09677419355,729.616993352846,6,824.333333333333,258.331311820048
19009,"Load_Speed_Mid",710,37,0.972972972972973,1055.67567567568,562.375124610594,10,20,60,"Load","Speed_Mid",36,1009.77777777778,495.106171073357,1,2708,NA
19009,"NoLoad_Accuracy_Max",540,37,0.945945945945946,1058.02702702703,758.295767805328,80,20,60,"NoLoad","Accuracy_Max",35,984.742857142857,611.651685907878,2,2340.5,2122.02745034083
19009,"NoLoad_Accuracy_Mid",640,41,0.926829268292683,927.80487804878,403.223462828752,40,20,60,"NoLoad","Accuracy_Mid",38,888.684210526316,350.298568040153,3,1423.33333333333,764.371855403725
19009,"NoLoad_Neutral",750,44.5,0.921717171717172,790.40303030303,376.918882049179,20,20,60,"NoLoad","Neutral",82,784.268292682927,374.656255581609,7,860.142857142857,426.954497408263
19009,"NoLoad_Speed_Max",690,45,0.822222222222222,752.266666666667,469.051383112767,5,20,60,"NoLoad","Speed_Max",37,797.621621621622,506.22746047774,8,542.5,61.7506506616963
19009,"NoLoad_Speed_Mid",820,47,0.914893617021277,730.553191489362,386.335335782757,10,20,60,"NoLoad","Speed_Mid",43,736.302325581395,394.136641454864,4,668.75,328.935023978901
19010,"Load_Accuracy_Max",920,46,1,738.760869565217,241.364563797184,80,20,60,"Load","Accuracy_Max",46,738.760869565217,241.364563797184,0,NA,NA
19010,"Load_Accuracy_Mid",680,49,0.897959183673469,655.040816326531,230.280169864131,40,20,60,"Load","Accuracy_Mid",44,652.25,240.50645448961,5,679.6,117.011965200145
19010,"Load_Neutral",820,49,0.919583333333333,660.467083333333,261.640566208575,20,20,60,"Load","Neutral",90,642.177777777778,205.301618495335,8,860.25,611.198529822465
19010,"Load_Speed_Max",965,52,0.942307692307692,584.115384615385,184.996942618738,5,20,60,"Load","Speed_Max",49,588,189.008267014964,3,520.666666666667,94.452810087013
19010,"Load_Speed_Mid",940,50,0.96,627.24,286.93059389735,10,20,60,"Load","Speed_Mid",48,637.166666666667,288.635626391988,2,389,16.9705627484771
19010,"NoLoad_Accuracy_Max",780,54,0.944444444444444,564.388888888889,145.954944801297,80,20,60,"NoLoad","Accuracy_Max",51,568.666666666667,148.36396687426,3,491.666666666667,76.3500709451755
19010,"NoLoad_Accuracy_Mid",780,54,0.907407407407407,569.888888888889,200.174043768772,40,20,60,"NoLoad","Accuracy_Mid",49,587.673469387755,201.658993079396,5,395.6,32.8831263720468
19010,"NoLoad_Neutral",1030,55.5,0.963450292397661,538.967348927875,176.469151452932,20,20,60,"NoLoad","Neutral",107,541.775700934579,180.24790624546,4,441.5,150.089973016188
19010,"NoLoad_Speed_Max",960,53,0.924528301886792,586.396226415094,331.423058690309,5,20,60,"NoLoad","Speed_Max",49,588.040816326531,344.410121269183,4,566.25,73.7309297377973
19010,"NoLoad_Speed_Mid",880,56,0.857142857142857,517.660714285714,178.16899809764,10,20,60,"NoLoad","Speed_Mid",48,529.125,177.871651670763,8,448.875,175.160691529643
19011,"Load_Accuracy_Max",440,32,0.9375,1285.25,716.44971459858,80,20,60,"Load","Accuracy_Max",30,1250.46666666667,688.332203945526,2,1807,1261.4784976368
19011,"Load_Accuracy_Mid",480,42,0.857142857142857,868.285714285714,370.587752401459,40,20,60,"Load","Accuracy_Mid",36,823.555555555555,375.69170069121,6,1136.66666666667,193.131733971056
19011,"Load_Neutral",490,33.5,0.86524500907441,1232.67967332123,553.777192051401,20,20,60,"Load","Neutral",58,1098.03448275862,349.92580494373,9,1866.55555555556,1242.42676958353
19011,"Load_Speed_Max",685,38,0.921052631578947,1006.97368421053,817.734229171699,5,20,60,"Load","Speed_Max",35,1037.22857142857,845.490949814655,3,654,123.745706996243
19011,"Load_Speed_Mid",660,39,0.897435897435897,971.717948717949,432.494961864051,10,20,60,"Load","Speed_Mid",35,931.771428571429,387.251254941519,4,1321.25,698.729978842566
19011,"NoLoad_Accuracy_Max",680,39,0.974358974358974,983.538461538462,267.55834052977,80,20,60,"NoLoad","Accuracy_Max",38,988.342105263158,269.440188049201,1,801,NA
19011,"NoLoad_Accuracy_Mid",780,45,0.955555555555556,775.466666666667,225.640865093183,40,20,60,"NoLoad","Accuracy_Mid",43,782.372093023256,228.425253300757,2,627,50.9116882454314
19011,"NoLoad_Neutral",800,47,0.925850340136054,731.98843537415,195.10942301398,20,20,60,"NoLoad","Neutral",87,731.48275862069,197.828200194769,7,706,266.543304799301
19011,"NoLoad_Speed_Max",750,45,0.866666666666667,768.088888888889,257.574245450107,5,20,60,"NoLoad","Speed_Max",39,720.641025641026,191.090153314233,6,1076.5,417.867323441305
19011,"NoLoad_Speed_Mid",840,48,0.916666666666667,701.166666666667,356.003187490711,10,20,60,"NoLoad","Speed_Mid",44,714.340909090909,365.611557955684,4,556.25,197.628228415545
19012,"Load_Accuracy_Max",640,47,0.936170212765957,698.042553191489,242.00098431769,80,20,60,"Load","Accuracy_Max",44,710.5,244.513993512142,3,515.333333333333,89.8461648226196
19012,"Load_Accuracy_Mid",900,51,0.96078431372549,614.196078431373,237.220742736199,40,20,60,"Load","Accuracy_Mid",49,613.69387755102,238.472937325674,2,626.5,289.206673505298
19012,"Load_Neutral",800,49,0.906666666666667,657.500833333333,223.05362375601,20,20,60,"Load","Neutral",89,662.426966292135,231.602121969811,9,604.333333333333,156.651683680706
19012,"Load_Speed_Max",890,52,0.884615384615385,577.288461538462,167.925209372163,5,20,60,"Load","Speed_Max",46,591.04347826087,173.730820718814,6,471.833333333333,30.0227691372176
19012,"Load_Speed_Mid",860,49,0.918367346938776,644.510204081633,219.064690069792,10,20,60,"Load","Speed_Mid",45,646.6,228.2546823178,4,621,53.7649204097492
19012,"NoLoad_Accuracy_Max",600,45,0.933333333333333,786.911111111111,256.435249865804,80,20,60,"NoLoad","Accuracy_Max",42,792.404761904762,264.069194509633,3,710,87.6070773396762
19012,"NoLoad_Accuracy_Mid",780,45,0.955555555555556,782.222222222222,355.477073093258,40,20,60,"NoLoad","Accuracy_Mid",43,775.441860465116,358.768482339608,2,928,330.925973595304
19012,"NoLoad_Neutral",770,51.5,0.872264150943396,613.96320754717,200.970166795656,20,20,60,"NoLoad","Neutral",90,618.811111111111,213.622942758752,13,573.769230769231,150.955376323686
19012,"NoLoad_Speed_Max",855,54,0.833333333333333,562.851851851852,132.400394374293,5,20,60,"NoLoad","Speed_Max",45,571.488888888889,135.761090660667,9,519.666666666667,110.665035128536
19012,"NoLoad_Speed_Mid",930,51,0.941176470588235,626.56862745098,178.897652852346,10,20,60,"NoLoad","Speed_Mid",48,627.375,181.996682808208,3,613.666666666667,146.486631927058
19013,"Load_Accuracy_Max",440,42,0.904761904761905,834.880952380952,459.406149145004,80,20,60,"Load","Accuracy_Max",38,837.052631578947,477.259855977876,4,814.25,272.998626370171
19013,"Load_Accuracy_Mid",920,52,0.961538461538462,588.269230769231,173.435880154272,40,20,60,"Load","Accuracy_Mid",50,595.64,171.585970598189,2,404,144.249783362056
19013,"Load_Neutral",770,50.5,0.881372549019608,619.88431372549,181.663581598392,20,20,60,"Load","Neutral",89,628.280898876405,192.792987705139,12,556.583333333333,109.228250036612
19013,"Load_Speed_Max",860,53,0.849056603773585,565.735849056604,204.263512964485,5,20,60,"Load","Speed_Max",45,566.022222222222,183.836202895266,8,564.125,312.270229814773
19013,"Load_Speed_Mid",830,52,0.865384615384615,591.134615384615,150.141113864252,10,20,60,"Load","Speed_Mid",45,596.688888888889,152.305139622915,7,555.428571428571,140.64477374205
19013,"NoLoad_Accuracy_Max",660,48,0.9375,701.875,217.525799399187,80,20,60,"NoLoad","Accuracy_Max",45,705.111111111111,222.586471677273,3,653.333333333333,134.930846485647
19013,"NoLoad_Accuracy_Mid",900,51,0.96078431372549,617.941176470588,216.933760559735,40,20,60,"NoLoad","Accuracy_Mid",49,598.714285714286,183.305755501566,2,1089,527.501658765165
19013,"NoLoad_Neutral",930,53.5,0.93466107617051,578.8071278826,97.9670357502836,20,20,60,"NoLoad","Neutral",100,581.16,97.9666733685956,7,543.571428571429,109.131201072924
19013,"NoLoad_Speed_Max",690,49,0.591836734693878,364.816326530612,113.740507565355,5,20,60,"NoLoad","Speed_Max",29,395.51724137931,119.240040221891,20,320.3,90.5812226387834
19013,"NoLoad_Speed_Mid",900,51,0.92156862745098,625.254901960784,133.032754333248,10,20,60,"NoLoad","Speed_Mid",47,634.276595744681,132.261385164191,4,519.25,102.35681055341
19014,"Load_Accuracy_Max",380,34,0.911764705882353,1193.23529411765,705.038535754178,80,20,60,"Load","Accuracy_Max",31,1214.96774193548,724.17757876877,3,968.666666666667,502.338863052953
19014,"Load_Accuracy_Mid",280,35,0.8,1136.28571428571,583.698278798446,40,20,60,"Load","Accuracy_Mid",28,1270,562.262822425137,7,601.428571428571,301.393351587178
19014,"Load_Neutral",590,37.5,0.883333333333333,1079.18888888889,468.662192083319,20,20,60,"Load","Neutral",67,983.850746268657,544.078098608829,8,1257.25,834.185102788515
19014,"Load_Speed_Max",545,40,0.55,627.025,470.086979813038,5,20,60,"Load","Speed_Max",22,565.409090909091,452.877220730163,18,702.333333333333,492.629678358907
19014,"Load_Speed_Mid",400,36,0.611111111111111,756.083333333333,610.129324698578,10,20,60,"Load","Speed_Mid",22,759.136363636364,679.557019259048,14,751.285714285714,506.172884507842
19014,"NoLoad_Accuracy_Max",200,40,0.85,946.775,456.073964283685,80,20,60,"NoLoad","Accuracy_Max",34,938.323529411765,460.825722700369,6,994.666666666667,466.487584686524
19014,"NoLoad_Accuracy_Mid",520,38,0.894736842105263,1035.28947368421,729.193701618985,40,20,60,"NoLoad","Accuracy_Mid",34,1009.44117647059,722.646197483919,4,1255,861.158521992322
19014,"NoLoad_Neutral",440,42.5,0.77039627039627,931.49796037296,553.992806210068,20,20,60,"NoLoad","Neutral",64,935.984375,729.541702022632,21,605.666666666667,343.565617216469
19014,"NoLoad_Speed_Max",525,33,0.606060606060606,483.090909090909,198.655695179556,5,20,60,"NoLoad","Speed_Max",20,521.5,191.850133396385,13,424,201.789907246786
19014,"NoLoad_Speed_Mid",520,48,0.6875,666.5,288.307828987211,10,20,60,"NoLoad","Speed_Mid",33,679.424242424242,308.226786464025,15,638.066666666667,246.250008460237
19015,"Load_Accuracy_Max",900,45,1,719.155555555556,304.62584767335,80,20,60,"Load","Accuracy_Max",45,719.155555555556,304.62584767335,0,NA,NA
19015,"Load_Accuracy_Mid",560,40,0.9,916.65,428.73938949269,40,20,60,"Load","Accuracy_Mid",36,865.194444444444,410.88085304237,4,1379.75,319.84931347954
19015,"Load_Neutral",850,48.5,0.938085106382979,669.023617021277,252.234757209456,20,20,60,"Load","Neutral",91,670.78021978022,262.862397555908,6,619.5,197.073336603408
19015,"Load_Speed_Max",845,46,0.934782608695652,734.934782608696,352.665242730201,5,20,60,"Load","Speed_Max",43,743.697674418605,360.143657506393,3,609.333333333333,222.036783739392
19015,"Load_Speed_Mid",960,48,1,668.833333333333,199.851150283163,10,20,60,"Load","Speed_Mid",48,668.833333333333,199.851150283163,0,NA,NA
19015,"NoLoad_Accuracy_Max",640,42,0.952380952380952,887.928571428571,589.86424204372,80,20,60,"NoLoad","Accuracy_Max",40,772.75,282.806153597867,2,3191.5,53.0330085889911
19015,"NoLoad_Accuracy_Mid",840,48,0.958333333333333,704.604166666667,287.938360689814,40,20,60,"NoLoad","Accuracy_Mid",46,699.478260869565,285.127163765412,2,822.5,457.498087427696
19015,"NoLoad_Neutral",860,50,0.93,651.44,239.686987322664,20,20,60,"NoLoad","Neutral",93,642.290322580645,200.726158941954,7,773,553.38473656821
19015,"NoLoad_Speed_Max",935,53,0.905660377358491,584.094339622642,184.56323329073,5,20,60,"NoLoad","Speed_Max",48,579.8125,178.965425907388,5,625.2,253.294690035145
19015,"NoLoad_Speed_Mid",820,48,0.916666666666667,713.291666666667,269.91763584813,10,20,60,"NoLoad","Speed_Mid",44,703.840909090909,250.345430488747,4,817.25,476.836362567565
19016,"Load_Accuracy_Max",640,42,0.952380952380952,851.261904761905,424.337995719117,80,20,60,"Load","Accuracy_Max",40,857.35,431.735469222318,2,729.5,286.378246380552
19016,"Load_Accuracy_Mid",600,42,0.904761904761905,851.547619047619,521.373196350025,40,20,60,"Load","Accuracy_Mid",38,868.236842105263,543.038171681579,4,693,202.443407729996
19016,"Load_Neutral",580,44,0.830745341614907,772.847826086957,355.420269130292,20,20,60,"Load","Neutral",73,799.315068493151,376.121466665296,15,623.2,250.056336509538
19016,"Load_Speed_Max",780,44,0.909090909090909,789.204545454545,938.523322542175,5,20,60,"Load","Speed_Max",40,806.4,982.429087934856,4,617.25,186.108167472575
19016,"Load_Speed_Mid",890,49,0.938775510204082,664.448979591837,311.409768982425,10,20,60,"Load","Speed_Mid",46,674.413043478261,319.006971438066,3,511.666666666667,20.1328918273887
19016,"NoLoad_Accuracy_Max",200,40,0.85,941.2,880.162024711126,80,20,60,"NoLoad","Accuracy_Max",34,915.5,872.968542249705,6,1086.83333333333,991.419874052698
19016,"NoLoad_Accuracy_Mid",800,47,0.936170212765957,739.63829787234,273.186624022601,40,20,60,"NoLoad","Accuracy_Mid",44,729.954545454545,277.073070250301,3,881.666666666667,183.429368786281
19016,"NoLoad_Neutral",630,49.5,0.814814814814815,675.931481481482,363.528238279326,20,20,60,"NoLoad","Neutral",81,685.456790123457,465.521348849403,18,580.555555555556,131.44366819477
19016,"NoLoad_Speed_Max",535,37,0.756756756756757,1058.91891891892,1447.2248227859,5,20,60,"NoLoad","Speed_Max",28,746.785714285714,812.616640386354,9,2030,2407.18367599982
19016,"NoLoad_Speed_Mid",610,53,0.716981132075472,592.094339622641,170.215052230423,10,20,60,"NoLoad","Speed_Mid",38,609.78947368421,165.246442966949,15,547.266666666667,180.124348582808
19017,"Load_Accuracy_Max",680,39,0.974358974358974,957.923076923077,435.685750139357,80,20,60,"Load","Accuracy_Max",38,943.447368421053,431.925024610498,1,1508,NA
19017,"Load_Accuracy_Mid",780,39,1,969.102564102564,660.72710326825,40,20,60,"Load","Accuracy_Mid",39,969.102564102564,660.72710326825,0,NA,NA
19017,"Load_Neutral",740,45,0.911111111111111,749.511111111111,277.677171520341,20,20,60,"Load","Neutral",82,755.792682926829,280.417005956754,8,685.125,290.618767214271
19017,"Load_Speed_Max",805,44,0.931818181818182,797.272727272727,285.739543432058,5,20,60,"Load","Speed_Max",41,814.073170731707,287.976248173691,3,567.666666666667,109.276407944869
19017,"Load_Speed_Mid",730,41,0.926829268292683,878.268292682927,380.43652718885,10,20,60,"Load","Speed_Mid",38,863.552631578947,365.531504714482,3,1064.66666666667,605.443914275578
19017,"NoLoad_Accuracy_Max",560,48,0.916666666666667,688.270833333333,316.922753161762,80,20,60,"NoLoad","Accuracy_Max",44,703.363636363636,322.365175777272,4,522.25,209.663818210646
19017,"NoLoad_Accuracy_Mid",480,45,0.844444444444444,761.333333333333,363.789711984073,40,20,60,"NoLoad","Accuracy_Mid",38,740.105263157895,302.672223877061,7,876.571428571429,622.283391267692
19017,"NoLoad_Neutral",870,49.5,0.939183673469388,656.634285714286,235.575416461905,20,20,60,"NoLoad","Neutral",93,666.666666666667,237.405099270046,6,499.833333333333,106.134662889495
19017,"NoLoad_Speed_Max",900,50,0.92,654.36,225.20093159629,5,20,60,"NoLoad","Speed_Max",46,661.413043478261,228.510887276438,4,573.25,188.572488272636
19017,"NoLoad_Speed_Mid",880,50,0.92,656.7,182.196714726536,10,20,60,"NoLoad","Speed_Mid",46,670.086956521739,183.706750143562,4,502.75,40.3019850627733
19018,"Load_Accuracy_Max",580,44,0.931818181818182,798.113636363636,346.170358377241,80,20,60,"Load","Accuracy_Max",41,806.634146341463,354.138303216241,3,681.666666666667,215.226237557909
19018,"Load_Accuracy_Mid",580,47,0.872340425531915,694.595744680851,313.659234893017,40,20,60,"Load","Accuracy_Mid",41,693.146341463415,321.493356150295,6,704.5,279.493649301733
19018,"Load_Neutral",800,48,0.917064698219713,680.032783326096,177.538321710505,20,20,60,"Load","Neutral",88,680.568181818182,182.921237711348,8,665.875,160.229690043477
19018,"Load_Speed_Max",860,48,0.916666666666667,687.625,245.923584827621,5,20,60,"Load","Speed_Max",44,704.454545454545,248.18180269343,4,502.5,121.63743941183
19018,"Load_Speed_Mid",750,48,0.854166666666667,677.3125,270.906685374966,10,20,60,"Load","Speed_Mid",41,675.19512195122,286.725671985628,7,689.714285714286,163.108056500095
19018,"NoLoad_Accuracy_Max",840,47,0.978723404255319,718.978723404255,236.239606567947,80,20,60,"NoLoad","Accuracy_Max",46,718.217391304348,238.791765449265,1,754,NA
19018,"NoLoad_Accuracy_Mid",940,50,0.98,654.5,180.702512321173,40,20,60,"NoLoad","Accuracy_Mid",49,656.591836734694,181.962440992565,1,552,NA
19018,"NoLoad_Neutral",710,52.5,0.837690631808279,592.32734204793,176.558328193747,20,20,60,"NoLoad","Neutral",88,588.170454545455,150.042999322754,17,609.058823529412,288.825957669198
19018,"NoLoad_Speed_Max",775,55,0.763636363636364,542.272727272727,161.842224786691,5,20,60,"NoLoad","Speed_Max",42,583.97619047619,153.279990595123,13,407.538461538462,108.816830334754
19018,"NoLoad_Speed_Mid",740,55,0.781818181818182,551.636363636364,163.265900324453,10,20,60,"NoLoad","Speed_Mid",43,572.209302325581,149.98977078447,12,477.916666666667,193.326129698607
19019,"Load_Accuracy_Max",840,47,0.978723404255319,710.702127659574,165.781537086772,80,20,60,"Load","Accuracy_Max",46,702.54347826087,157.785467084863,1,1086,NA
19019,"Load_Accuracy_Mid",900,48,0.979166666666667,688.625,172.254466019984,40,20,60,"Load","Accuracy_Mid",47,691.957446808511,172.545640773278,1,532,NA
19019,"Load_Neutral",830,45.5,0.956280193236715,741.738647342995,289.1636369558,20,20,60,"Load","Neutral",87,741.287356321839,290.409690883773,4,749.25,264.73052336291
19019,"Load_Speed_Max",920,51,0.92156862745098,609.843137254902,147.690943872537,5,20,60,"Load","Speed_Max",47,604.276595744681,152.449378929483,4,675.25,31.542299641381
19019,"Load_Speed_Mid",870,48,0.9375,671.104166666667,271.579950971171,10,20,60,"Load","Speed_Mid",45,685.044444444444,274.920811371661,3,462,22.5166604983954
19019,"NoLoad_Accuracy_Max",780,49,0.959183673469388,673.387755102041,181.855461874549,80,20,60,"NoLoad","Accuracy_Max",47,657.255319148936,157.068175184772,2,1052.5,391.030049996161
19019,"NoLoad_Accuracy_Mid",860,49,0.959183673469388,678.326530612245,217.631510792431,40,20,60,"NoLoad","Accuracy_Mid",47,674.851063829787,221.265920942613,2,760,86.2670273047588
19019,"NoLoad_Neutral",910,48.5,0.96936170212766,699.295319148936,265.595420234567,20,20,60,"NoLoad","Neutral",94,701.340425531915,273.630374390462,3,597,158.823801742686
19019,"NoLoad_Speed_Max",1055,54,0.981481481481482,570.648148148148,150.000648729089,5,20,60,"NoLoad","Speed_Max",53,570.056603773585,151.372492051173,1,602,NA
19019,"NoLoad_Speed_Mid",870,48,0.9375,709.541666666667,199.777637912578,10,20,60,"NoLoad","Speed_Mid",45,703.288888888889,198.785588262857,3,803.333333333333,233.431645955156
19020,"Load_Accuracy_Max",580,34,0.970588235294118,1186.91176470588,647.358472547174,80,20,60,"Load","Accuracy_Max",33,1193.66666666667,656.177694429388,1,964,NA
19020,"Load_Accuracy_Mid",620,40,0.925,929.675,617.816684599267,40,20,60,"Load","Accuracy_Mid",37,914.756756756757,626.363863252973,3,1113.66666666667,571.168393149808
19020,"Load_Neutral",660,43,0.883720930232558,816.267441860465,412.102593575635,20,20,60,"Load","Neutral",76,811.828947368421,423.834980093523,10,850,370.754485999683
19020,"Load_Speed_Max",780,44,0.909090909090909,790.727272727273,271.371911935885,5,20,60,"Load","Speed_Max",40,797.975,281.875084854157,4,718.25,122.249403543194
19020,"Load_Speed_Mid",650,34,0.970588235294118,1199.29411764706,808.48059999632,10,20,60,"Load","Speed_Mid",33,1134.48484848485,725.807271302622,1,3338,NA
19020,"NoLoad_Accuracy_Max",220,46,0.847826086956522,742.521739130435,207.566721709798,80,20,60,"NoLoad","Accuracy_Max",39,701.128205128205,134.435501946234,7,973.142857142857,368.076273151561
19020,"NoLoad_Accuracy_Mid",680,49,0.897959183673469,680.30612244898,227.49104415354,40,20,60,"NoLoad","Accuracy_Mid",44,674.659090909091,233.494578711212,5,730,177.486619213957
19020,"NoLoad_Neutral",840,51,0.911764705882353,617.382352941176,250.219635858749,20,20,60,"NoLoad","Neutral",93,630.440860215054,253.815641000793,9,482.444444444444,151.048097564245
19020,"NoLoad_Speed_Max",945,56,0.875,520.107142857143,138.218098876894,5,20,60,"NoLoad","Speed_Max",49,523.714285714286,143.691944798586,7,494.857142857143,95.3579721740288
19020,"NoLoad_Speed_Mid",990,51,0.980392156862745,613.470588235294,243.051875363362,10,20,60,"NoLoad","Speed_Mid",50,615.84,244.923758232922,1,495,NA
19021,"Load_Accuracy_Max",520,41,0.926829268292683,893.170731707317,269.617961423106,80,20,60,"Load","Accuracy_Max",38,901.921052631579,278.411554355889,3,782.333333333333,2.08166599946613
19021,"Load_Accuracy_Mid",320,40,0.8,921.8,318.362090257022,40,20,60,"Load","Accuracy_Mid",32,958.9375,320.330065411368,8,773.25,280.61144972058
19021,"Load_Neutral",690,45.5,0.877176015473888,758.723404255319,222.856946143912,20,20,60,"Load","Neutral",80,749.9,220.732130460705,11,811.363636363636,263.613077341498
19021,"Load_Speed_Max",680,49,0.755102040816326,653.65306122449,193.96579928564,5,20,60,"Load","Speed_Max",37,678.54054054054,207.99139867293,12,576.916666666667,118.68097675038
19021,"Load_Speed_Mid",700,47,0.829787234042553,693.744680851064,145.742845015683,10,20,60,"Load","Speed_Mid",39,694.794871794872,148.739294968567,8,688.625,139.460119747546
19021,"NoLoad_Accuracy_Max",460,43,0.906976744186046,852.209302325581,231.292904193912,80,20,60,"NoLoad","Accuracy_Max",39,842.205128205128,227.817930476716,4,949.75,278.478455181007
19021,"NoLoad_Accuracy_Mid",500,43,0.86046511627907,857.46511627907,287.170958609046,40,20,60,"NoLoad","Accuracy_Mid",37,882.189189189189,290.037721477534,6,705,233.727191400573
19021,"NoLoad_Neutral",630,47.5,0.831560283687943,709.79920212766,185.373825818378,20,20,60,"NoLoad","Neutral",79,711.316455696203,187.268184513191,16,701.25,180.652336455045
19021,"NoLoad_Speed_Max",680,49,0.755102040816326,667.469387755102,115.737688697477,5,20,60,"NoLoad","Speed_Max",37,674.108108108108,118.279514471203,12,647,109.822170306861
19021,"NoLoad_Speed_Mid",650,49,0.775510204081633,671.877551020408,211.712622896882,10,20,60,"NoLoad","Speed_Mid",38,671.842105263158,226.572645269982,11,672,158.765865348947
19022,"Load_Accuracy_Max",840,47,0.978723404255319,708.446808510638,218.823217164056,80,20,60,"Load","Accuracy_Max",46,708.739130434783,221.231948143181,1,695,NA
19022,"Load_Accuracy_Mid",680,46,0.91304347826087,727.152173913043,298.741357282055,40,20,60,"Load","Accuracy_Mid",42,732.357142857143,309.677788600689,4,672.5,153.936133943052
19022,"Load_Neutral",760,48,0.895788102475032,680.815675206253,179.283401802666,20,20,60,"Load","Neutral",86,675.372093023256,184.258389322081,10,723.1,151.741336930097
19022,"Load_Speed_Max",775,50,0.82,624.9,169.291832318621,5,20,60,"Load","Speed_Max",41,620.170731707317,144.925481272105,9,646.444444444444,264.361547464411
19022,"Load_Speed_Mid",760,50,0.84,636.38,333.748401509586,10,20,60,"Load","Speed_Mid",42,651.714285714286,345.644910538525,8,555.875,266.726418156989
19022,"NoLoad_Accuracy_Max",400,50,0.88,637.44,173.413997975589,80,20,60,"NoLoad","Accuracy_Max",44,638.090909090909,171.261233640283,6,632.666666666667,206.002588980495
19022,"NoLoad_Accuracy_Mid",740,52,0.903846153846154,615.403846153846,157.736595976987,40,20,60,"NoLoad","Accuracy_Mid",47,608.255319148936,150.923745226739,5,682.6,221.44818807116
19022,"NoLoad_Neutral",740,53,0.849056603773585,583.915094339623,132.422923092894,20,20,60,"NoLoad","Neutral",90,587.3,130.163980416061,16,564.875,147.954891774486
19022,"NoLoad_Speed_Max",855,54,0.833333333333333,561.092592592593,135.977005342193,5,20,60,"NoLoad","Speed_Max",45,545.355555555556,118.869132692515,9,639.777777777778,190.84534168914
19022,"NoLoad_Speed_Mid",960,54,0.925925925925926,559.092592592593,126.248821181647,10,20,60,"NoLoad","Speed_Mid",50,558.6,126.086785790662,4,565.25,147.867902760087
19023,"Load_Accuracy_Max",420,31,0.935483870967742,1332.22580645161,697.346910782929,80,20,60,"Load","Accuracy_Max",29,1280.55172413793,607.123109791869,2,2081.5,1751.50349699908
19023,"Load_Accuracy_Mid",800,46,0.956521739130435,745.065217391304,194.991213725008,40,20,60,"Load","Accuracy_Mid",44,754.772727272727,193.816727580628,2,531.5,17.6776695296637
19023,"Load_Neutral",620,41,0.87797619047619,883.706547619048,496.197927275237,20,20,60,"Load","Neutral",72,859.583333333333,487.971707503564,10,1052.6,584.344304897949
19023,"Load_Speed_Max",735,48,0.8125,669.4375,266.223223106619,5,20,60,"Load","Speed_Max",39,665.923076923077,264.087244815977,9,684.666666666667,291.193234811525
19023,"Load_Speed_Mid",740,46,0.869565217391304,735.739130434783,230.453604372151,10,20,60,"Load","Speed_Mid",40,741.575,236.602651598814,6,696.833333333333,198.092318545335
19023,"NoLoad_Accuracy_Max",500,35,0.942857142857143,1157.22857142857,569.857571767578,80,20,60,"NoLoad","Accuracy_Max",33,1147.60606060606,578.664569255904,2,1316,521.844804515672
19023,"NoLoad_Accuracy_Mid",700,44,0.931818181818182,816.409090909091,263.313882743896,40,20,60,"NoLoad","Accuracy_Mid",41,822.121951219512,270.614688729377,3,738.333333333333,127.382625712196
19023,"NoLoad_Neutral",840,48,0.93747286148502,706.984802431611,273.82604052319,20,20,60,"NoLoad","Neutral",90,697.866666666667,277.04399520816,6,834.333333333333,192.979446228521
19023,"NoLoad_Speed_Max",825,55,0.8,549.472727272727,158.126631690654,5,20,60,"NoLoad","Speed_Max",44,561.045454545455,166.390400347182,11,503.181818181818,114.133972314836
19023,"NoLoad_Speed_Mid",820,53,0.849056603773585,588.698113207547,178.532757703718,10,20,60,"NoLoad","Speed_Mid",45,603.622222222222,187.550149522357,8,504.75,78.6869929349372
19024,"Load_Accuracy_Max",440,27,0.962962962962963,1626.62962962963,996.689603257787,80,20,60,"Load","Accuracy_Max",26,1645.5,1011.49727631863,1,1136,NA
19024,"Load_Accuracy_Mid",560,34,0.941176470588235,1210.35294117647,769.346234951151,40,20,60,"Load","Accuracy_Mid",32,1222.75,789.784494901677,2,1012,335.168614282424
19024,"Load_Neutral",520,27,0.984375,1723.06960227273,792.619673366951,20,20,60,"Load","Neutral",53,1652.22641509434,896.640345561599,1,1068,NA
19024,"Load_Speed_Max",545,40,0.75,900.65,443.918712240116,5,20,60,"Load","Speed_Max",30,891.166666666667,478.666616639449,10,929.1,338.323792968938
19024,"Load_Speed_Mid",640,41,0.853658536585366,876.219512195122,406.335237962149,10,20,60,"Load","Speed_Mid",35,918.457142857143,423.556534378973,6,629.833333333333,124.940652578201
19024,"NoLoad_Accuracy_Max",200,25,0.88,1807.16,1090.41126339255,80,20,60,"NoLoad","Accuracy_Max",22,1767.45454545455,1115.89996681187,3,2098.33333333333,1023.96402931613
19024,"NoLoad_Accuracy_Mid",560,28,1,1596.39285714286,1050.75205304778,40,20,60,"NoLoad","Accuracy_Mid",28,1596.39285714286,1050.75205304778,0,NA,NA
19024,"NoLoad_Neutral",700,37,0.972222222222222,1079.75877192982,601.195975046665,20,20,60,"NoLoad","Neutral",72,1086.54166666667,611.612828315891,2,786,18.3847763108502
19024,"NoLoad_Speed_Max",785,43,0.930232558139535,835.720930232558,341.259385050182,5,20,60,"NoLoad","Speed_Max",40,839.375,353.661411848634,3,787,52.9150262212918
19024,"NoLoad_Speed_Mid",610,38,0.868421052631579,1020.71052631579,552.319331247772,10,20,60,"NoLoad","Speed_Mid",33,940.181818181818,414.204165731214,5,1552.2,1021.10317794041
19025,"Load_Accuracy_Max",720,51,0.941176470588235,602.666666666667,122.564867179248,80,20,60,"Load","Accuracy_Max",48,609.145833333333,123.047645085117,3,499,51.1761663276959
19025,"Load_Accuracy_Mid",660,51,0.88235294117647,608.313725490196,239.864669361378,40,20,60,"Load","Accuracy_Mid",45,624.4,249.393846975203,6,487.666666666667,90.6568622149844
19025,"Load_Neutral",960,54,0.943739279588336,544.51217838765,142.034372765638,20,20,60,"Load","Neutral",102,541.705882352941,139.518094801128,6,585.666666666667,286.841884435775
19025,"Load_Speed_Max",960,53,0.924528301886792,567.188679245283,116.914672469313,5,20,60,"Load","Speed_Max",49,571.163265306122,120.350416655347,4,518.5,41.9960315585493
19025,"Load_Speed_Mid",1000,53,0.962264150943396,553.867924528302,109.754102382737,10,20,60,"Load","Speed_Mid",51,553.078431372549,111.505666786447,2,574,62.2253967444162
19025,"NoLoad_Accuracy_Max",660,53,0.924528301886792,591.056603773585,259.117170934038,80,20,60,"NoLoad","Accuracy_Max",49,602.326530612245,266.164374944875,4,453,52.9779828482235
19025,"NoLoad_Accuracy_Mid",880,56,0.928571428571429,531.071428571429,91.4174952706452,40,20,60,"NoLoad","Accuracy_Mid",52,534.711538461538,92.2565341834795,4,483.75,72.8531628231289
19025,"NoLoad_Neutral",990,55.5,0.946103896103896,528.474188311688,95.6615516990836,20,20,60,"NoLoad","Neutral",105,530.733333333333,106.296597625073,6,486.333333333333,33.368647959824
19025,"NoLoad_Speed_Max",920,56,0.857142857142857,520.75,120.418550367986,5,20,60,"NoLoad","Speed_Max",48,522.6875,121.475355393944,8,509.125,121.142699208118
19025,"NoLoad_Speed_Mid",1060,56,0.964285714285714,529.875,85.3499880172543,10,20,60,"NoLoad","Speed_Mid",54,532.240740740741,86.0168774981706,2,466,7.07106781186548
19026,"Load_Accuracy_Max",780,49,0.959183673469388,648.877551020408,266.032707313489,80,20,60,"Load","Accuracy_Max",47,654.808510638298,269.962850769434,2,509.5,64.3467170879758
19026,"Load_Accuracy_Mid",840,48,0.958333333333333,674.270833333333,263.903168862106,40,20,60,"Load","Accuracy_Mid",46,674.95652173913,261.827165768374,2,658.5,433.456456867354
19026,"Load_Neutral",900,50,0.949779911964786,628.529411764706,211.058846305806,20,20,60,"Load","Neutral",95,623.98947368421,215.095352172742,5,704.2,122.638493141428
19026,"Load_Speed_Max",820,51,0.843137254901961,597.21568627451,217.572913178593,5,20,60,"Load","Speed_Max",43,608.581395348837,231.919036833171,8,536.125,101.739776601176
19026,"Load_Speed_Mid",950,52,0.942307692307692,584.557692307692,185.424411264023,10,20,60,"Load","Speed_Mid",49,584.428571428571,187.546105442546,3,586.666666666667,180.483609597474
19026,"NoLoad_Accuracy_Max",600,50,0.92,656.66,188.424359316075,80,20,60,"NoLoad","Accuracy_Max",46,650.130434782609,186.419074929538,4,731.75,224.592037555505
19026,"NoLoad_Accuracy_Mid",960,54,0.962962962962963,554.351851851852,155.59104080132,40,20,60,"NoLoad","Accuracy_Mid",52,542.884615384615,136.08095252836,2,852.5,392.444263558534
19026,"NoLoad_Neutral",910,54.5,0.917508417508417,552.657575757576,134.05332661997,20,20,60,"NoLoad","Neutral",100,548.23,132.424467131076,9,600.333333333333,153.934239206227
19026,"NoLoad_Speed_Max",880,54,0.851851851851852,552.814814814815,120.672341967838,5,20,60,"NoLoad","Speed_Max",46,556.978260869565,123.085244016844,8,528.875,109.964198719401
19026,"NoLoad_Speed_Mid",900,51,0.92156862745098,622.019607843137,229.979259081864,10,20,60,"NoLoad","Speed_Mid",47,622.148936170213,227.995230568289,4,620.5,290.602248213373
19027,"Load_Accuracy_Max",960,48,1,676.104166666667,221.079483115485,80,20,60,"Load","Accuracy_Max",48,676.104166666667,221.079483115485,0,NA,NA
19027,"Load_Accuracy_Mid",820,50,0.94,631.46,228.564572218595,40,20,60,"Load","Accuracy_Mid",47,616.659574468085,187.160391178,3,863.333333333333,623.265860875865
19027,"Load_Neutral",850,50.5,0.921310832025118,626.1465855573,199.836975896803,20,20,60,"Load","Neutral",93,630.612903225806,203.123117102073,8,562.25,178.390222345765
19027,"Load_Speed_Max",845,46,0.934782608695652,719.760869565217,324.530237234109,5,20,60,"Load","Speed_Max",43,728.186046511628,333.601220151214,3,599,95.9739548002478
19027,"Load_Speed_Mid",950,52,0.942307692307692,583.269230769231,143.996339194292,10,20,60,"Load","Speed_Mid",49,580.183673469388,145.832048585206,3,633.666666666667,119.542182234278
19027,"NoLoad_Accuracy_Max",880,49,0.979591836734694,680.734693877551,225.68403202913,80,20,60,"NoLoad","Accuracy_Max",48,682.041666666667,227.884812106144,1,618,NA
19027,"NoLoad_Accuracy_Mid",900,51,0.96078431372549,635.647058823529,158.703852950004,40,20,60,"NoLoad","Accuracy_Mid",49,619.489795918367,137.491684968125,2,1031.5,160.513239329346
19027,"NoLoad_Neutral",870,52.5,0.91455007256894,595.384978229318,176.481600540896,20,20,60,"NoLoad","Neutral",96,581.0625,148.918261755268,9,747.555555555556,362.376224079033
19027,"NoLoad_Speed_Max",990,57,0.894736842105263,512.350877192982,158.940407883412,5,20,60,"NoLoad","Speed_Max",51,515.745098039216,165.467319206816,6,483.5,89.5784572316358
19027,"NoLoad_Speed_Mid",940,53,0.924528301886792,575.981132075472,143.373971804514,10,20,60,"NoLoad","Speed_Mid",49,566.918367346939,120.212457191198,4,687,327.588156074056
19028,"Load_Accuracy_Max",620,36,0.972222222222222,1099.33333333333,302.679840283897,80,20,60,"Load","Accuracy_Max",35,1072.22857142857,259.005233391856,1,2048,NA
19028,"Load_Accuracy_Mid",760,38,1,1008.23684210526,263.586227156342,40,20,60,"Load","Accuracy_Mid",38,1008.23684210526,263.586227156342,0,NA,NA
19028,"Load_Neutral",730,38.5,0.973809523809524,1000.22857142857,368.170830238825,20,20,60,"Load","Neutral",75,973.893333333333,405.965834447603,2,1469.5,352.846283812087
19028,"Load_Speed_Max",680,34,1,1198.61764705882,420.304075691375,5,20,60,"Load","Speed_Max",34,1198.61764705882,420.304075691375,0,NA,NA
19028,"Load_Speed_Mid",750,39,0.974358974358974,970.974358974359,314.636589632806,10,20,60,"Load","Speed_Mid",38,961.105263157895,312.68279319582,1,1346,NA
19028,"NoLoad_Accuracy_Max",740,47,0.957446808510638,708.148936170213,148.420375186774,80,20,60,"NoLoad","Accuracy_Max",45,703.666666666667,142.28811999218,2,809,318.198051533946
19028,"NoLoad_Accuracy_Mid",860,46,0.978260869565217,744.717391304348,185.088406869496,40,20,60,"NoLoad","Accuracy_Mid",45,730.533333333333,159.910429473957,1,1383,NA
19028,"NoLoad_Neutral",920,50,0.959583833533413,643.945578231293,131.496491937751,20,20,60,"NoLoad","Neutral",96,644.28125,135.684285490057,4,623.75,123.721124577279
19028,"NoLoad_Speed_Max",980,49,1,664.591836734694,181.399986030795,5,20,60,"NoLoad","Speed_Max",49,664.591836734694,181.399986030795,0,NA,NA
19028,"NoLoad_Speed_Mid",990,51,0.980392156862745,621.980392156863,105.021424518253,10,20,60,"NoLoad","Speed_Mid",50,618.5,103.073829295871,1,796,NA
19029,"Load_Accuracy_Max",680,39,0.974358974358974,973.358974358974,608.037848855666,80,20,60,"Load","Accuracy_Max",38,984.710526315789,611.997478704166,1,542,NA
19029,"Load_Accuracy_Mid",440,40,0.85,928.75,570.989054185805,40,20,60,"Load","Accuracy_Mid",34,938.147058823529,600.045914018653,6,875.5,403.305715307879
19029,"Load_Neutral",600,42,0.857142857142857,856.154761904762,595.696564418001,20,20,60,"Load","Neutral",72,859.166666666667,622.571066139735,12,838.083333333333,404.201448050425
19029,"Load_Speed_Max",700,40,0.9,916.55,528.037098055692,5,20,60,"Load","Speed_Max",36,915.083333333333,530.642918677765,4,929.75,582.512589277405
19029,"Load_Speed_Mid",430,38,0.710526315789474,1009.57894736842,1162.09607063386,10,20,60,"Load","Speed_Mid",27,1093.37037037037,1339.43533304001,11,803.909090909091,516.348613737939
19029,"NoLoad_Accuracy_Max",380,49,0.877551020408163,674.142857142857,247.111985410124,80,20,60,"NoLoad","Accuracy_Max",43,666.53488372093,240.2784445118,6,728.666666666667,311.751610527783
19029,"NoLoad_Accuracy_Mid",480,45,0.844444444444444,790.222222222222,493.751726758264,40,20,60,"NoLoad","Accuracy_Mid",38,759.842105263158,474.723505661854,7,955.142857142857,600.405537552586
19029,"NoLoad_Neutral",560,49,0.786666666666667,686.01375,294.394820919832,20,20,60,"NoLoad","Neutral",77,660.337662337662,265.23612173573,21,777.857142857143,381.655772354393
19029,"NoLoad_Speed_Max",835,53,0.830188679245283,591.77358490566,169.129859246747,5,20,60,"NoLoad","Speed_Max",44,585.136363636364,162.620630132246,9,624.222222222222,205.817138364239
19029,"NoLoad_Speed_Mid",590,52,0.711538461538462,605.846153846154,191.22088496726,10,20,60,"NoLoad","Speed_Mid",37,608.351351351351,212.848043894676,15,599.666666666667,129.028605171028
19030,"Load_Accuracy_Max",480,35,0.914285714285714,1160.31428571429,549.220183609482,80,20,60,"Load","Accuracy_Max",32,1202.125,555.610489577935,3,714.333333333333,129.27619012538
19030,"Load_Accuracy_Mid",300,42,0.785714285714286,868.619047619048,325.015568286104,40,20,60,"Load","Accuracy_Mid",33,862.818181818182,342.22858356527,9,889.888888888889,268.794737878388
19030,"Load_Neutral",630,41.5,0.881104651162791,867.666569767442,303.089682406695,20,20,60,"Load","Neutral",73,878.328767123288,315.021827056587,10,773.9,226.540871956181
19030,"Load_Speed_Max",810,48,0.875,675.583333333333,252.179000368687,5,20,60,"Load","Speed_Max",42,693.5,260.065493627297,6,550.166666666667,147.020293383827
19030,"Load_Speed_Mid",680,43,0.86046511627907,834.023255813954,285.596992812307,10,20,60,"Load","Speed_Mid",37,848.459459459459,295.712190651146,6,745,210.926527492395
19030,"NoLoad_Accuracy_Max",440,42,0.904761904761905,878.404761904762,409.998873259832,80,20,60,"NoLoad","Accuracy_Max",38,877.815789473684,413.387447034348,4,884,435.516551541577
19030,"NoLoad_Accuracy_Mid",920,46,1,751.978260869565,189.749599809906,40,20,60,"NoLoad","Accuracy_Mid",46,751.978260869565,189.749599809906,0,NA,NA
19030,"NoLoad_Neutral",650,48,0.843030829353018,688.23643074251,184.127055148802,20,20,60,"NoLoad","Neutral",81,682.382716049383,170.986005852909,15,716.4,259.280267553968
19030,"NoLoad_Speed_Max",785,51,0.803921568627451,468.529411764706,157.611592586482,5,20,60,"NoLoad","Speed_Max",41,472.90243902439,159.698435320771,10,450.6,155.609339908203
19030,"NoLoad_Speed_Mid",770,49,0.857142857142857,668.673469387755,196.468762122114,10,20,60,"NoLoad","Speed_Mid",42,665.880952380952,177.139493383446,7,685.428571428571,306.591942241832
19031,"Load_Accuracy_Max",240,37,0.864864864864865,1034.32432432432,472.169876095343,80,20,60,"Load","Accuracy_Max",32,1038.875,497.682872857288,5,1005.2,292.728030772593
19031,"Load_Accuracy_Mid",500,43,0.86046511627907,830.232558139535,475.970929344845,40,20,60,"Load","Accuracy_Mid",37,841.486486486486,500.053642768099,6,760.833333333333,309.682041240151
19031,"Load_Neutral",790,45.5,0.934719535783366,750.333897485493,376.734341913247,20,20,60,"Load","Neutral",85,746.305882352941,371.503541722828,6,789.666666666667,508.301354185356
19031,"Load_Speed_Max",815,47,0.893617021276596,699.872340425532,361.900155400887,5,20,60,"Load","Speed_Max",42,696.047619047619,339.146630090157,5,732,570.763961721481
19031,"Load_Speed_Mid",730,50,0.82,622.68,198.638574464544,10,20,60,"Load","Speed_Mid",41,619.19512195122,197.431661532819,9,638.555555555556,215.484982719859
19031,"NoLoad_Accuracy_Max",220,46,0.847826086956522,740.760869565217,262.149421749642,80,20,60,"NoLoad","Accuracy_Max",39,704.666666666667,238.011204218065,7,941.857142857143,317.789987555423
19031,"NoLoad_Accuracy_Mid",400,47,0.808510638297872,718.127659574468,357.420566853141,40,20,60,"NoLoad","Accuracy_Mid",38,741.973684210526,382.051891681498,9,617.444444444444,213.007694175064
19031,"NoLoad_Neutral",740,52,0.855530891601924,606.182204957455,181.482879009883,20,20,60,"NoLoad","Neutral",89,610.314606741573,185.551854765577,15,578.066666666667,174.007580568313
19031,"NoLoad_Speed_Max",795,56,0.767857142857143,518.178571428571,144.724705077399,5,20,60,"NoLoad","Speed_Max",43,535,152.082527721284,13,462.538461538462,103.341356181521
19031,"NoLoad_Speed_Mid",460,55,0.563636363636364,454,173.987760318767,10,20,60,"NoLoad","Speed_Mid",31,464.645161290323,149.38575308846,24,440.25,203.997069458917
19032,"Load_Accuracy_Max",500,40,0.925,918.9,421.822407643007,80,20,60,"Load","Accuracy_Max",37,931.351351351351,431.947091424158,3,765.333333333333,270.304149678345
19032,"Load_Accuracy_Mid",780,42,0.976190476190476,849.261904761905,432.319499034064,40,20,60,"Load","Accuracy_Mid",41,856.536585365854,435.079768408103,1,551,NA
19032,"Load_Neutral",710,41.5,0.933333333333333,882.414035087719,311.768624898601,20,20,60,"Load","Neutral",77,863.207792207792,312.357350080015,6,1001.16666666667,506.324566524938
19032,"Load_Speed_Max",680,39,0.897435897435897,927.102564102564,415.649573741087,5,20,60,"Load","Speed_Max",35,904.657142857143,411.759563113143,4,1123.5,457.737552170091
19032,"Load_Speed_Mid",760,41,0.951219512195122,894.414634146341,316.955121082603,10,20,60,"Load","Speed_Mid",39,892.538461538462,323.529860832354,2,931,195.161471607487
19032,"NoLoad_Accuracy_Max",760,48,0.958333333333333,699.291666666667,279.608081210136,80,20,60,"NoLoad","Accuracy_Max",46,693.869565217391,278.072141614418,2,824,403.050865276332
19032,"NoLoad_Accuracy_Mid",700,44,0.931818181818182,809.204545454545,296.774644715987,40,20,60,"NoLoad","Accuracy_Mid",41,800.292682926829,288.093842688666,3,931,458.013100249327
19032,"NoLoad_Neutral",860,49,0.941053511705686,679.09406354515,233.418770171279,20,20,60,"NoLoad","Neutral",92,665.760869565217,205.951416951403,6,808,603.364897885185
19032,"NoLoad_Speed_Max",940,52,0.923076923076923,613.826923076923,167.66092312548,5,20,60,"NoLoad","Speed_Max",48,611.041666666667,171.040863393385,4,647.25,133.908862041813
19032,"NoLoad_Speed_Mid",880,50,0.92,652.16,219.797064101764,10,20,60,"NoLoad","Speed_Mid",46,648.369565217391,227.252708938324,4,695.75,108.004243743784
19033,"Load_Accuracy_Max",380,44,0.886363636363636,791.318181818182,326.565907214389,80,20,60,"Load","Accuracy_Max",39,819.025641025641,335.694526489054,5,575.2,100.025996620879
19033,"Load_Accuracy_Mid",340,38,0.81578947368421,1020.36842105263,416.474548786152,40,20,60,"Load","Accuracy_Mid",31,996.129032258065,420.258154149366,7,1127.71428571429,412.372289032501
19033,"Load_Neutral",540,39,0.847066578773896,956.821028345419,948.609649525213,20,20,60,"Load","Neutral",66,1001.80303030303,1070.90765557069,12,688,148.625215039221
19033,"Load_Speed_Max",720,41,0.902439024390244,877.170731707317,451.908890288686,5,20,60,"Load","Speed_Max",37,857.864864864865,407.496364139346,4,1055.75,826.558074184748
19033,"Load_Speed_Mid",670,41,0.878048780487805,881.09756097561,576.126019412335,10,20,60,"Load","Speed_Mid",36,845.166666666667,567.479112265062,5,1139.8,637.298360267779
19033,"NoLoad_Accuracy_Max",240,38,0.868421052631579,1044.21052631579,691.376424161399,80,20,60,"NoLoad","Accuracy_Max",33,1060.42424242424,721.964898311503,5,937.2,484.936284474569
19033,"NoLoad_Accuracy_Mid",580,43,0.906976744186046,835.395348837209,864.60183898593,40,20,60,"NoLoad","Accuracy_Mid",39,827.102564102564,897.83466989582,4,916.25,495.185066414568
19033,"NoLoad_Neutral",610,46.5,0.829777365491651,738.10667903525,328.156146073867,20,20,60,"NoLoad","Neutral",77,762.831168831169,360.494594550226,16,596.3125,145.329840363223
19033,"NoLoad_Speed_Max",715,47,0.808510638297872,738.914893617021,526.924333722604,5,20,60,"NoLoad","Speed_Max",38,684.236842105263,479.854281609477,9,969.777777777778,676.290761761865
19033,"NoLoad_Speed_Mid",730,47,0.851063829787234,729.234042553191,497.19308701191,10,20,60,"NoLoad","Speed_Mid",40,712.8,470.876770857656,7,823.142857142857,664.760214556454
19034,"Load_Accuracy_Max",580,40,0.95,943.125,190.596928366026,80,20,60,"Load","Accuracy_Max",38,931.447368421053,174.81367646547,2,1165,427.092495836675
19034,"Load_Accuracy_Mid",680,37,0.972972972972973,1039.97297297297,331.305287753899,40,20,60,"Load","Accuracy_Mid",36,1024.69444444444,322.51430262366,1,1590,NA
19034,"Load_Neutral",730,43.5,0.91984126984127,808.829365079365,187.987869278556,20,20,60,"Load","Neutral",80,801.2875,193.422878606318,7,874.285714285714,189.448070532723
19034,"Load_Speed_Max",915,52,0.903846153846154,572.269230769231,134.126822540784,5,20,60,"Load","Speed_Max",47,563.127659574468,128.703842215083,5,658.2,169.312433093379
19034,"Load_Speed_Mid",830,49,0.897959183673469,653.183673469388,138.443079980755,10,20,60,"Load","Speed_Mid",44,649.25,139.671229412436,5,687.8,136.448525092798
19034,"NoLoad_Accuracy_Max",840,42,1,880.928571428571,139.613646837533,80,20,60,"NoLoad","Accuracy_Max",42,880.928571428571,139.613646837533,0,NA,NA
19034,"NoLoad_Accuracy_Mid",740,46,0.934782608695652,755.608695652174,141.241869502223,40,20,60,"NoLoad","Accuracy_Mid",43,761.511627906977,141.281949120497,3,671,134.903669334826
19034,"NoLoad_Neutral",900,48,0.968519322622666,708.935301780287,105.121859331025,20,20,60,"NoLoad","Neutral",93,709.344086021505,108.576610362939,3,681,32.1869538788622
19034,"NoLoad_Speed_Max",1020,56,0.928571428571429,528.589285714286,61.6638325662073,5,20,60,"NoLoad","Speed_Max",52,529.346153846154,61.959153089626,4,518.75,65.6524942405085
19034,"NoLoad_Speed_Mid",930,51,0.941176470588235,634.254901960784,114.07906786738,10,20,60,"NoLoad","Speed_Mid",48,621.958333333333,92.2568012446049,3,831,252.275642898794
19035,"Load_Accuracy_Max",700,45,0.955555555555556,768.533333333333,239.203184837417,80,20,60,"Load","Accuracy_Max",43,770.697674418605,244.306358695849,2,722,79.1959594928933
19035,"Load_Accuracy_Mid",580,41,0.902439024390244,877.560975609756,550.682533261247,40,20,60,"Load","Accuracy_Mid",37,868.837837837838,570.857275094685,4,958.25,350.990384483678
19035,"Load_Neutral",860,46,0.967391304347826,727.663043478261,266.314524727301,20,20,60,"Load","Neutral",89,728.910112359551,269.640401968716,3,690.666666666667,87.460467259976
19035,"Load_Speed_Max",915,47,0.978723404255319,699.212765957447,354.033033104454,5,20,60,"Load","Speed_Max",46,706.630434782609,354.233278987208,1,358,NA
19035,"Load_Speed_Mid",820,47,0.914893617021277,712.936170212766,307.511357461188,10,20,60,"Load","Speed_Mid",43,726.255813953488,318.355752864715,4,569.75,34.4226185329743
19035,"NoLoad_Accuracy_Max",940,47,1,713.978723404255,265.264141479501,80,20,60,"NoLoad","Accuracy_Max",47,713.978723404255,265.264141479501,0,NA,NA
19035,"NoLoad_Accuracy_Mid",780,45,0.955555555555555,778.888888888889,250.802097118808,40,20,60,"NoLoad","Accuracy_Mid",43,764.720930232558,218.448133277553,2,1083.5,754.482935526046
19035,"NoLoad_Neutral",790,51.5,0.883295625942685,615.448152337858,196.070164421304,20,20,60,"NoLoad","Neutral",91,619.912087912088,197.167534421965,12,580.5,190.89716412961
19035,"NoLoad_Speed_Max",955,54,0.907407407407407,561.166666666667,129.389969282566,5,20,60,"NoLoad","Speed_Max",49,571.244897959184,130.726420852265,5,462.4,57.6003472211757
19035,"NoLoad_Speed_Mid",800,49,0.877551020408163,665.836734693878,311.396742311876,10,20,60,"NoLoad","Speed_Mid",43,684.232558139535,326.920904749678,6,534,96.7243506052121
19036,"Load_Accuracy_Max",460,43,0.906976744186047,828.06976744186,237.477256590107,80,20,60,"Load","Accuracy_Max",39,800.076923076923,220.866163882515,4,1101,249.248202935681
19036,"Load_Accuracy_Mid",760,41,0.975609756097561,899.341463414634,271.201365202694,40,20,60,"Load","Accuracy_Mid",40,878.525,239.19490899093,1,1732,NA
19036,"Load_Neutral",670,41.5,0.90472027972028,859.619172494173,297.297408327878,20,20,60,"Load","Neutral",75,856.133333333333,318.341238522665,8,848.375,175.443061581651
19036,"Load_Speed_Max",805,49,0.857142857142857,647.673469387755,228.87846008263,5,20,60,"Load","Speed_Max",42,639.666666666667,229.935056225232,7,695.714285714286,233.799568210119
19036,"Load_Speed_Mid",940,47,1,714.042553191489,307.115114903248,10,20,60,"Load","Speed_Mid",47,714.042553191489,307.115114903248,0,NA,NA
19036,"NoLoad_Accuracy_Max",740,47,0.957446808510638,717.468085106383,164.905091421364,80,20,60,"NoLoad","Accuracy_Max",45,722.622222222222,166.699551301257,2,601.5,10.6066017177982
19036,"NoLoad_Accuracy_Mid",760,44,0.954545454545455,805.863636363636,261.699773920786,40,20,60,"NoLoad","Accuracy_Mid",42,798.738095238095,264.636709980785,2,955.5,163.341666454092
19036,"NoLoad_Neutral",820,46,0.945390070921986,754.245862884161,238.771743388599,20,20,60,"NoLoad","Neutral",87,735.770114942529,226.937482485735,5,1065.6,253.306731059402
19036,"NoLoad_Speed_Max",890,52,0.884615384615385,611.019230769231,109.912708748783,5,20,60,"NoLoad","Speed_Max",46,601.065217391304,112.153942254764,6,687.333333333333,46.0159392674611
19036,"NoLoad_Speed_Mid",900,48,0.958333333333333,697.5,175.861889718379,10,20,60,"NoLoad","Speed_Mid",46,677.282608695652,120.528772598723,2,1162.5,590.434162290767
19037,"Load_Accuracy_Max",780,44,0.977272727272727,802.613636363636,410.055368689547,80,20,60,"Load","Accuracy_Max",43,793.023255813953,409.88485539769,1,1215,NA
19037,"Load_Accuracy_Mid",740,43,0.953488372093023,825.255813953488,465.737566253953,40,20,60,"Load","Accuracy_Mid",41,786.682926829268,354.378289333897,2,1616,1665.94357647551
19037,"Load_Neutral",760,46,0.914772727272727,734.439393939394,278.446487100797,20,20,60,"Load","Neutral",84,711.571428571429,246.443780617737,8,945.75,533.252754329502
19037,"Load_Speed_Max",915,47,0.978723404255319,716.255319148936,281.120078636151,5,20,60,"Load","Speed_Max",46,719.695652173913,283.224360970844,1,558,NA
19037,"Load_Speed_Mid",880,50,0.92,641.18,137.400604519955,10,20,60,"Load","Speed_Mid",46,636.54347826087,138.617412169329,4,694.5,126.545117119021
19037,"NoLoad_Accuracy_Max",640,47,0.936170212765957,728.702127659574,307.262380080553,80,20,60,"NoLoad","Accuracy_Max",44,729.75,310.144986725076,3,713.333333333333,320.893024750201
19037,"NoLoad_Accuracy_Mid",760,47,0.936170212765957,734.510638297872,409.39164157163,40,20,60,"NoLoad","Accuracy_Mid",44,732.431818181818,407.664556457839,3,765,529.388326278546
19037,"NoLoad_Neutral",930,51.5,0.951546003016591,611.328996983409,211.912914398054,20,20,60,"NoLoad","Neutral",98,612.928571428571,210.51366975719,5,578.4,248.91524662021
19037,"NoLoad_Speed_Max",810,53,0.811320754716981,582.830188679245,172.110511886656,5,20,60,"NoLoad","Speed_Max",43,608.837209302326,178.65648472665,10,471,71.2117343638751
19037,"NoLoad_Speed_Mid",780,51,0.843137254901961,636.078431372549,159.724493192153,10,20,60,"NoLoad","Speed_Mid",43,625.813953488372,148.604341379567,8,691.25,213.54741862172
19038,"Load_Accuracy_Max",620,41,0.951219512195122,877.926829268293,425.654577694397,80,20,60,"Load","Accuracy_Max",39,865.48717948718,426.155078753144,2,1120.5,471.640223051427
19038,"Load_Accuracy_Mid",580,41,0.902439024390244,897.268292682927,504.172045257878,40,20,60,"Load","Accuracy_Mid",37,778.45945945946,345.224934289595,4,1996.25,417.839981332567
19038,"Load_Neutral",690,38.5,0.947332421340629,1014.15526675787,497.359185810838,20,20,60,"Load","Neutral",73,977.849315068493,533.431570932561,4,1248,929.166292974514
19038,"Load_Speed_Max",800,45,0.911111111111111,753.222222222222,345.715127662863,5,20,60,"Load","Speed_Max",41,772.634146341463,353.497719660082,4,554.25,169.900706296354
19038,"Load_Speed_Mid",800,43,0.953488372093023,822.790697674419,465.986692950179,10,20,60,"Load","Speed_Mid",41,825.09756097561,473.913378418359,2,775.5,362.745778748699
19038,"NoLoad_Accuracy_Max",520,46,0.91304347826087,761.782608695652,270.957062038617,80,20,60,"NoLoad","Accuracy_Max",42,757.595238095238,273.078391275563,4,805.75,281.593530938952
19038,"NoLoad_Accuracy_Mid",780,48,0.9375,710.458333333333,289.982168074898,40,20,60,"NoLoad","Accuracy_Mid",45,680.555555555556,173.728701187114,3,1159,995.091453083585
19038,"NoLoad_Neutral",810,44.5,0.952997967479675,798.35950203252,304.066115479762,20,20,60,"NoLoad","Neutral",85,770.929411764706,292.571106059434,4,1196.25,749.237112001268
19038,"NoLoad_Speed_Max",925,50,0.94,639.96,134.383241180603,5,20,60,"NoLoad","Speed_Max",47,629.170212765957,115.2760994024,3,809,302.004966846574
19038,"NoLoad_Speed_Mid",920,49,0.959183673469388,664.163265306122,196.551874719582,10,20,60,"NoLoad","Speed_Mid",47,669.957446808511,198.666528268375,2,528,12.7279220613579
19039,"Load_Accuracy_Max",860,43,1,787.395348837209,353.466246757592,80,20,60,"Load","Accuracy_Max",43,787.395348837209,353.466246757592,0,NA,NA
19039,"Load_Accuracy_Mid",840,45,0.977777777777778,748.844444444444,324.158417749686,40,20,60,"Load","Accuracy_Mid",44,753.022727272727,326.677957388545,1,565,NA
19039,"Load_Neutral",740,39,0.973737373737374,1000.69191919192,486.413495561152,20,20,60,"Load","Neutral",76,956.592105263158,534.470109613414,2,1251,954.594154601839
19039,"Load_Speed_Max",905,54,0.87037037037037,534.166666666667,209.141980301728,5,20,60,"Load","Speed_Max",47,540.212765957447,200.408814369443,7,493.571428571429,276.120660305634
19039,"Load_Speed_Mid",1020,54,0.962962962962963,539.37037037037,217.578812118458,10,20,60,"Load","Speed_Mid",52,545.423076923077,219.228356738334,2,382,80.6101730552664
19039,"NoLoad_Accuracy_Max",840,47,0.978723404255319,736.234042553191,329.53123575414,80,20,60,"NoLoad","Accuracy_Max",46,721.934782608696,318.088625118774,1,1394,NA
19039,"NoLoad_Accuracy_Mid",920,49,0.979591836734694,674.102040816327,253.898293687482,40,20,60,"NoLoad","Accuracy_Mid",48,657.979166666667,229.842359444545,1,1448,NA
19039,"NoLoad_Neutral",960,51,0.971698113207547,625.485752791683,230.15226401969,20,20,60,"NoLoad","Neutral",99,624.262626262626,242.358209582873,3,589,141.446102809515
19039,"NoLoad_Speed_Max",1015,57,0.912280701754386,497.877192982456,112.411881390244,5,20,60,"NoLoad","Speed_Max",52,504.826923076923,112.25893058563,5,425.6,95.266993234803
19039,"NoLoad_Speed_Mid",950,58,0.879310344827586,485.327586206897,115.35564958994,10,20,60,"NoLoad","Speed_Mid",51,492.529411764706,116.886158794132,7,432.857142857143,94.3917873748004
19040,"Load_Accuracy_Max",500,50,0.9,642.12,289.7875111744,80,20,60,"Load","Accuracy_Max",45,648.711111111111,298.235692503141,5,582.8,213.163552231614
19040,"Load_Accuracy_Mid",860,46,0.978260869565217,743.95652173913,341.564046801816,40,20,60,"Load","Accuracy_Mid",45,752.533333333333,340.377370789326,1,358,NA
19040,"Load_Neutral",910,49.5,0.96,652.125918367347,260.367349052724,20,20,60,"Load","Neutral",95,653.178947368421,258.696403800489,4,623.75,329.137635850617
19040,"Load_Speed_Max",1015,52,0.980769230769231,589.326923076923,195.161945940514,5,20,60,"Load","Speed_Max",51,593.647058823529,194.57654776765,1,369,NA
19040,"Load_Speed_Mid",870,51,0.901960784313726,598.764705882353,223.663013324536,10,20,60,"Load","Speed_Mid",46,594.260869565217,204.837109787005,5,640.2,388.464541496389
19040,"NoLoad_Accuracy_Max",520,51,0.901960784313726,625.647058823529,181.505903323216,80,20,60,"NoLoad","Accuracy_Max",46,627.826086956522,170.475583699488,5,605.6,290.346861529447
19040,"NoLoad_Accuracy_Mid",820,47,0.957446808510638,715.531914893617,263.011642250485,40,20,60,"NoLoad","Accuracy_Mid",45,711.355555555556,268.119135287041,2,809.5,23.3345237791561
19040,"NoLoad_Neutral",780,51,0.882307692307692,634.252692307692,200.091861317674,20,20,60,"NoLoad","Neutral",90,640.655555555556,199.523092133797,12,583.083333333333,213.557085548288
19040,"NoLoad_Speed_Max",880,54,0.851851851851852,569.962962962963,234.528749733231,5,20,60,"NoLoad","Speed_Max",46,589.760869565217,244.58610706276,8,456.125,120.409346457348
19040,"NoLoad_Speed_Mid",890,49,0.938775510204082,674.836734693878,252.12780711863,10,20,60,"NoLoad","Speed_Mid",46,665.282608695652,236.02397835281,3,821.333333333333,487.787180370019
19041,"Load_Accuracy_Max",720,41,0.975609756097561,894.048780487805,375.001663410945,80,20,60,"Load","Accuracy_Max",40,887.75,377.576057883944,1,1146,NA
19041,"Load_Accuracy_Mid",760,47,0.936170212765957,710.978723404255,223.70307274344,40,20,60,"Load","Accuracy_Mid",44,710.863636363636,224.536068569829,3,712.666666666667,258.906031859695
19041,"Load_Neutral",830,47.5,0.940925426774483,714.047619047619,277.003756135227,20,20,60,"Load","Neutral",89,692.191011235955,312.79694533226,6,774.166666666667,398.204679363097
19041,"Load_Speed_Max",940,52,0.923076923076923,580.442307692308,180.886749692115,5,20,60,"Load","Speed_Max",48,595.604166666667,175.597065305692,4,398.5,159.228347559933
19041,"Load_Speed_Mid",570,39,0.820512820512821,961.051282051282,367.673621623563,10,20,60,"Load","Speed_Mid",32,943,398.117343700119,7,1043.57142857143,166.06911928758
19041,"NoLoad_Accuracy_Max",760,48,0.958333333333333,677.979166666667,219.65587104468,80,20,60,"NoLoad","Accuracy_Max",46,677.934782608696,223.644499862708,2,679,130.107647738325
19041,"NoLoad_Accuracy_Mid",960,51,0.980392156862745,620.627450980392,170.482721797174,40,20,60,"NoLoad","Accuracy_Mid",50,623,171.360939039711,1,502,NA
19041,"NoLoad_Neutral",860,53,0.906339031339031,580.367521367521,168.894352445832,20,20,60,"NoLoad","Neutral",96,587.625,171.088727365595,10,506.4,175.453824251409
19041,"NoLoad_Speed_Max",975,55,0.909090909090909,537.072727272727,138.726730387138,5,20,60,"NoLoad","Speed_Max",50,554.5,132.634721652194,5,362.8,50.46979294588
19041,"NoLoad_Speed_Mid",890,55,0.872727272727273,544.854545454545,141.870104670881,10,20,60,"NoLoad","Speed_Mid",48,540.791666666667,131.587032655656,7,572.714285714286,210.882047825883
19042,"Load_Accuracy_Max",340,27,0.925925925925926,1658.40740740741,672.603281131734,80,20,60,"Load","Accuracy_Max",25,1671.08,698.238075444185,2,1500,84.8528137423857
19042,"Load_Accuracy_Mid",780,39,1,973.410256410256,297.631502820157,40,20,60,"Load","Accuracy_Mid",39,973.410256410256,297.631502820157,0,NA,NA
19042,"Load_Neutral",780,43,0.954004329004329,816.576298701299,302.985225485413,20,20,60,"Load","Neutral",82,808.378048780488,302.696427001712,4,973.75,275.007121119921
19042,"Load_Speed_Max",815,42,0.976190476190476,834.880952380952,439.731137499809,5,20,60,"Load","Speed_Max",41,835.609756097561,445.168163621837,1,805,NA
19042,"Load_Speed_Mid",730,41,0.926829268292683,889.414634146341,264.412554127991,10,20,60,"Load","Speed_Mid",38,876.473684210526,267.89507192002,3,1053.33333333333,164.591413303773
19042,"NoLoad_Accuracy_Max",800,40,1,925.075,304.090774866608,80,20,60,"NoLoad","Accuracy_Max",40,925.075,304.090774866608,0,NA,NA
19042,"NoLoad_Accuracy_Mid",720,45,0.933333333333333,781.488888888889,236.855884666204,40,20,60,"NoLoad","Accuracy_Mid",42,756.928571428571,211.986584119585,3,1125.33333333333,350.669835220159
19042,"NoLoad_Neutral",850,45.5,0.967538759689923,773.736918604651,307.015917883289,20,20,60,"NoLoad","Neutral",88,772.363636363636,323.367737776824,3,678,93.0644937664199
19042,"NoLoad_Speed_Max",965,52,0.942307692307692,601.807692307692,141.579332498245,5,20,60,"NoLoad","Speed_Max",49,611.489795918367,139.250392346691,3,443.666666666667,77.1643268183772
19042,"NoLoad_Speed_Mid",990,51,0.980392156862745,637.392156862745,125.194581101799,10,20,60,"NoLoad","Speed_Mid",50,637.54,126.461127366056,1,630,NA
19043,"Load_Accuracy_Max",720,36,1,1080.94444444444,530.77630178794,80,20,60,"Load","Accuracy_Max",36,1080.94444444444,530.77630178794,0,NA,NA
19043,"Load_Accuracy_Mid",740,37,1,1048.94594594595,516.675480889651,40,20,60,"Load","Accuracy_Mid",37,1048.94594594595,516.675480889651,0,NA,NA
19043,"Load_Neutral",570,32.5,0.93844696969697,1265.99715909091,829.293721412976,20,20,60,"Load","Neutral",61,1230.27868852459,761.627952287019,4,1805.75,1568.96173205935
19043,"Load_Speed_Max",760,38,1,1015.89473684211,479.804565477061,5,20,60,"Load","Speed_Max",38,1015.89473684211,479.804565477061,0,NA,NA
19043,"Load_Speed_Mid",650,37,0.918918918918919,1046.08108108108,466.532920023299,10,20,60,"Load","Speed_Mid",34,980.264705882353,364.178054089224,3,1792,906.199205473057
19043,"NoLoad_Accuracy_Max",660,43,0.953488372093023,848.116279069767,528.582210090276,80,20,60,"NoLoad","Accuracy_Max",41,832.536585365854,527.22140024666,2,1167.5,634.274782724333
19043,"NoLoad_Accuracy_Mid",620,37,0.945945945945946,1073.10810810811,1458.48328341054,40,20,60,"NoLoad","Accuracy_Mid",35,1081.22857142857,1500.0846659579,2,931,164.048773235279
19043,"NoLoad_Neutral",790,42.5,0.96483942414175,865.25415282392,454.802789099886,20,20,60,"NoLoad","Neutral",82,860.865853658537,459.197683625248,3,977.666666666667,486.301689626237
19043,"NoLoad_Speed_Max",765,42,0.928571428571429,845.142857142857,349.833170792536,5,20,60,"NoLoad","Speed_Max",39,853.435897435897,360.964774113967,3,737.333333333333,120.271914150118
19043,"NoLoad_Speed_Mid",700,41,0.902439024390244,906.439024390244,643.2788683293,10,20,60,"NoLoad","Speed_Mid",37,936.459459459459,670.725212595151,4,628.75,70.9806311609019
19044,"Load_Accuracy_Max",720,51,0.941176470588235,608.117647058824,237.927942626235,80,20,60,"Load","Accuracy_Max",48,611.1875,241.036296044057,3,559,214.669513438681
19044,"Load_Accuracy_Mid",860,49,0.959183673469388,651.163265306122,278.707608655467,40,20,60,"Load","Accuracy_Mid",47,632.574468085106,226.055374582044,2,1088,989.949493661167
19044,"Load_Neutral",840,46,0.956028368794326,721.422458628842,373.94768981764,20,20,60,"Load","Neutral",88,726.125,389.516936686349,4,605,274.499544626216
19044,"Load_Speed_Max",925,55,0.872727272727273,515.236363636364,129.577370514666,5,20,60,"Load","Speed_Max",48,526.229166666667,131.329249968022,7,439.857142857143,91.7195518440654
19044,"Load_Speed_Mid",750,42,0.928571428571429,857.738095238095,306.272161728653,10,20,60,"Load","Speed_Mid",39,859.615384615385,315.425828747894,3,833.333333333333,177.809823500653
19044,"NoLoad_Accuracy_Max",700,55,0.927272727272727,540.545454545455,117.298419392246,80,20,60,"NoLoad","Accuracy_Max",51,547.980392156863,118.538177849346,4,445.75,23.4716140618123
19044,"NoLoad_Accuracy_Mid",720,57,0.87719298245614,505.754385964912,111.103761139524,40,20,60,"NoLoad","Accuracy_Mid",50,507.4,113.748917913669,7,494,96.7488156688925
19044,"NoLoad_Neutral",850,57,0.86979969183359,491.84560862866,173.593010992818,20,20,60,"NoLoad","Neutral",99,503.909090909091,180.485009322053,15,398.066666666667,178.677069704244
19044,"NoLoad_Speed_Max",755,56,0.732142857142857,480.571428571429,166.061747239103,5,20,60,"NoLoad","Speed_Max",41,512.829268292683,157.167888329491,15,392.4,162.428357833758
19044,"NoLoad_Speed_Mid",1010,55,0.945454545454545,550.127272727273,156.310002351151,10,20,60,"NoLoad","Speed_Mid",52,540.230769230769,127.734960802285,3,721.666666666667,443.776219882649
19045,"Load_Accuracy_Max",500,40,0.925,936.425,354.173641861931,80,20,60,"Load","Accuracy_Max",37,900.378378378378,338.83578055776,3,1381,242.851806664064
19045,"Load_Accuracy_Mid",620,46,0.891304347826087,735.45652173913,327.598989723157,40,20,60,"Load","Accuracy_Mid",41,717.073170731707,307.686072990305,5,886.2,478.316526998597
19045,"Load_Neutral",810,41.5,0.989130434782609,894.6589306698,325.320398384231,20,20,60,"Load","Neutral",82,881.231707317073,358.417760899084,1,584,NA
19045,"Load_Speed_Max",820,46,0.91304347826087,725.282608695652,263.500846555122,5,20,60,"Load","Speed_Max",42,709.071428571429,225.540261167858,4,895.5,551.341696832977
19045,"Load_Speed_Mid",890,46,0.978260869565217,741.695652173913,251.341102405584,10,20,60,"Load","Speed_Mid",45,745.066666666667,253.127384388321,1,590,NA
19045,"NoLoad_Accuracy_Max",780,44,0.977272727272727,807.227272727273,337.644292230907,80,20,60,"NoLoad","Accuracy_Max",43,795.651162790698,332.688105310789,1,1305,NA
19045,"NoLoad_Accuracy_Mid",900,51,0.96078431372549,637.019607843137,188.034942518254,40,20,60,"NoLoad","Accuracy_Mid",49,641.877551020408,188.531123939464,2,518,179.605122421383
19045,"NoLoad_Neutral",660,48,0.841304347826087,705.696956521739,264.376471050376,20,20,60,"NoLoad","Neutral",81,706.827160493827,294.938416882383,15,685.2,131.205509466202
19045,"NoLoad_Speed_Max",915,52,0.903846153846154,594.75,156.62968378675,5,20,60,"NoLoad","Speed_Max",47,594.234042553191,156.494230031981,5,599.6,176.412301158394
19045,"NoLoad_Speed_Mid",1000,53,0.962264150943396,585.452830188679,106.821844142791,10,20,60,"NoLoad","Speed_Mid",51,591.509803921569,104.277202215828,2,431,9.89949493661167
19046,"Load_Accuracy_Max",380,39,0.897435897435897,982.717948717949,309.674697632171,80,20,60,"Load","Accuracy_Max",35,978.657142857143,314.162747525503,4,1018.25,307.013979051986
19046,"Load_Accuracy_Mid",520,38,0.894736842105263,996.184210526316,378.737722502865,40,20,60,"Load","Accuracy_Mid",34,1017.32352941176,381.432286423894,4,816.5,347.291904119095
19046,"Load_Neutral",550,38.5,0.857287449392713,994.263157894737,511.794582993005,20,20,60,"Load","Neutral",66,959.621212121212,394.657076660875,11,1201,987.954857268286
19046,"Load_Speed_Max",770,41,0.951219512195122,889.414634146341,320.205400923357,5,20,60,"Load","Speed_Max",39,898.692307692308,325.52460929254,2,708.5,75.6604255869606
19046,"Load_Speed_Mid",600,39,0.846153846153846,966.25641025641,315.582812382083,10,20,60,"Load","Speed_Mid",33,986.030303030303,316.959824430527,6,857.5,311.708678095429
19046,"NoLoad_Accuracy_Max",720,41,0.975609756097561,924.829268292683,494.874373070531,80,20,60,"NoLoad","Accuracy_Max",40,933.4,498.087511618962,1,582,NA
19046,"NoLoad_Accuracy_Mid",500,43,0.86046511627907,846.744186046512,456.780769184021,40,20,60,"NoLoad","Accuracy_Mid",37,863.378378378378,472.468302955127,6,744.166666666667,361.587287755898
19046,"NoLoad_Neutral",640,45,0.855555555555556,783.911111111111,237.519244333364,20,20,60,"NoLoad","Neutral",77,802.155844155844,245.496707284975,13,675.846153846154,153.80986430972
19046,"NoLoad_Speed_Max",785,48,0.854166666666667,709.583333333333,509.867393412492,5,20,60,"NoLoad","Speed_Max",41,736.926829268293,544.152018752292,7,549.428571428571,165.371155428083
19046,"NoLoad_Speed_Mid",790,47,0.893617021276596,717.787234042553,275.745545603993,10,20,60,"NoLoad","Speed_Mid",42,684.52380952381,222.951076126825,5,997.2,505.671533705428
19047,"Load_Accuracy_Max",860,43,1,832.116279069767,343.652940188369,80,20,60,"Load","Accuracy_Max",43,832.116279069767,343.652940188369,0,NA,NA
19047,"Load_Accuracy_Mid",900,48,0.979166666666667,669.6875,240.145537100654,40,20,60,"Load","Accuracy_Mid",47,671.553191489362,242.389895085569,1,582,NA
19047,"Load_Neutral",770,41.5,0.965116279069767,875.193023255814,333.874644456625,20,20,60,"Load","Neutral",80,869.3625,329.28219761256,3,975.666666666667,580.23299917648
19047,"Load_Speed_Max",870,46,0.956521739130435,716.586956521739,253.406355799179,5,20,60,"Load","Speed_Max",44,708.75,242.466600433093,2,889,547.300648638388
19047,"Load_Speed_Mid",810,48,0.895833333333333,674.479166666667,312.516892451234,10,20,60,"Load","Speed_Mid",43,697.651162790698,314.894077710565,5,475.2,225.855484768469
19047,"NoLoad_Accuracy_Max",860,48,0.979166666666667,700.229166666667,179.110359369114,80,20,60,"NoLoad","Accuracy_Max",47,706,176.478475100827,1,429,NA
19047,"NoLoad_Accuracy_Mid",620,46,0.891304347826087,762.065217391304,275.066731473083,40,20,60,"NoLoad","Accuracy_Mid",41,783.756097560976,275.73962178909,5,584.2,215.646006223162
19047,"NoLoad_Neutral",730,49.5,0.868259803921569,657.495098039216,256.7725566607,20,20,60,"NoLoad","Neutral",86,680.46511627907,265.051901584417,13,498.769230769231,116.654871198587
19047,"NoLoad_Speed_Max",900,50,0.92,650.22,156.33601828192,5,20,60,"NoLoad","Speed_Max",46,665.195652173913,152.721623232922,4,478,79.7412482136232
19047,"NoLoad_Speed_Mid",860,52,0.884615384615385,598.865384615385,121.328597544858,10,20,60,"NoLoad","Speed_Mid",46,609.891304347826,123.549041681767,6,514.333333333333,55.4785243735508
19048,"Load_Accuracy_Max",260,38,0.868421052631579,994.736842105263,465.014541139134,80,20,60,"Load","Accuracy_Max",33,1024.48484848485,491.132690905174,5,798.4,122.596084766195
19048,"Load_Accuracy_Mid",200,31,0.774193548387097,1353.38709677419,731.900251738325,40,20,60,"Load","Accuracy_Mid",24,1341.91666666667,748.674882515866,7,1392.71428571429,726.238187347584
19048,"Load_Neutral",680,42,0.90414066931367,864.505672149745,352.875582428376,20,20,60,"Load","Neutral",76,842.671052631579,355.68279456684,8,1064.5,251.025325984679
19048,"Load_Speed_Max",640,41,0.804878048780488,887.975609756098,409.470602595893,5,20,60,"Load","Speed_Max",33,931.939393939394,431.103521456414,8,706.625,248.582229855635
19048,"Load_Speed_Mid",670,41,0.878048780487805,898.048780487805,329.373340695594,10,20,60,"Load","Speed_Mid",36,891.305555555556,335.096132854392,5,946.6,314.610552906288
19048,"NoLoad_Accuracy_Max",460,33,0.93939393939394,971.242424242424,494.902012416538,80,20,60,"NoLoad","Accuracy_Max",31,873.193548387097,231.760425059275,2,2491,1144.09877195983
19048,"NoLoad_Accuracy_Mid",560,49,0.857142857142857,668.448979591837,204.842120223569,40,20,60,"NoLoad","Accuracy_Mid",42,640.309523809524,163.496324728624,7,837.285714285714,337.965340572922
19048,"NoLoad_Neutral",530,46.5,0.784458834412581,727.242136910268,203.678453870592,20,20,60,"NoLoad","Neutral",73,730.13698630137,207.080856126598,20,715.2,217.883986513345
19048,"NoLoad_Speed_Max",840,52,0.846153846153846,609.076923076923,141.672204665067,5,20,60,"NoLoad","Speed_Max",44,608.636363636364,146.446766407185,8,611.5,120.332871651931
19048,"NoLoad_Speed_Mid",550,47,0.723404255319149,714,212.045524234364,10,20,60,"NoLoad","Speed_Mid",34,680.352941176471,149.135261434741,13,802,315.592564339952
19049,"Load_Accuracy_Max",620,46,0.934782608695652,730.652173913043,215.654272430182,80,20,60,"Load","Accuracy_Max",43,732.46511627907,219.831358397989,3,704.666666666667,174.574721346859
19049,"Load_Accuracy_Mid",560,43,0.883720930232558,818.697674418605,374.338307320793,40,20,60,"Load","Accuracy_Mid",38,791.157894736842,375.472928906192,5,1028,324.541984957263
19049,"Load_Neutral",720,47,0.882699275362319,683.461956521739,211.154644656423,20,20,60,"Load","Neutral",83,669.096385542169,207.786159687088,11,791,206.470336852537
19049,"Load_Speed_Max",850,50,0.88,635.74,240.383860540102,5,20,60,"Load","Speed_Max",44,626.318181818182,227.901832469879,6,704.833333333333,336.30308750689
19049,"Load_Speed_Mid",730,50,0.82,635.26,176.951718308257,10,20,60,"Load","Speed_Mid",41,643.634146341463,180.599661696466,9,597.111111111111,163.424634345961
19049,"NoLoad_Accuracy_Max",680,49,0.938775510204082,679.591836734694,232.102340786644,80,20,60,"NoLoad","Accuracy_Max",46,690.239130434783,234.081010173127,3,516.333333333333,132.156472915001
19049,"NoLoad_Accuracy_Mid",600,51,0.862745098039216,632.588235294118,197.360297574825,40,20,60,"NoLoad","Accuracy_Mid",44,642.886363636364,198.671075118637,7,567.857142857143,189.88542911576
19049,"NoLoad_Neutral",880,51,0.931538461538461,627.890384615385,159.938005280558,20,20,60,"NoLoad","Neutral",95,627.21052631579,153.781683795557,7,631,255.411432790312
19049,"NoLoad_Speed_Max",755,54,0.759259259259259,570.018518518518,149.607851012426,5,20,60,"NoLoad","Speed_Max",41,582.829268292683,146.647860952525,13,529.615384615385,157.612149733419
19049,"NoLoad_Speed_Mid",840,51,0.88235294117647,623.156862745098,170.415888056134,10,20,60,"NoLoad","Speed_Mid",45,632.222222222222,172.453799990934,6,555.166666666667,149.713615501953
19050,"Load_Accuracy_Max",200,25,0.88,1821.08,922.518650217978,80,20,60,"Load","Accuracy_Max",22,1832.81818181818,923.855824474568,3,1735,1112.65762928225
19050,"Load_Accuracy_Mid",160,20,0.8,2437.55,1474.29089020701,40,20,60,"Load","Accuracy_Mid",16,2067.875,1146.58314860575,4,3916.25,1883.66458001418
19050,"Load_Neutral",350,22.5,0.886363636363636,2054.70553359684,883.17208500897,20,20,60,"Load","Neutral",40,1972.025,856.979803714393,5,2697.6,862.18460900204
19050,"Load_Speed_Max",465,27,0.888888888888889,1669.07407407407,598.27816568279,5,20,60,"Load","Speed_Max",24,1662.04166666667,617.463569012756,3,1725.33333333333,513.15916958906
19050,"Load_Speed_Mid",500,28,0.928571428571429,1507.82142857143,623.887872972642,10,20,60,"Load","Speed_Mid",26,1501.88461538462,608.117839036026,2,1585,1118.64292783712
19050,"NoLoad_Accuracy_Max",640,32,1,1293.65625,675.286109465534,80,20,60,"NoLoad","Accuracy_Max",32,1293.65625,675.286109465534,0,NA,NA
19050,"NoLoad_Accuracy_Mid",340,32,0.84375,1321.03125,678.742978785048,40,20,60,"NoLoad","Accuracy_Mid",27,1208.92592592593,676.420154246771,5,1926.4,231.09586755284
19050,"NoLoad_Neutral",680,42,0.902272727272727,871.696590909091,323.030712968435,20,20,60,"NoLoad","Neutral",76,840.026315789474,308.77098195628,8,1143.125,412.998248872109
19050,"NoLoad_Speed_Max",685,43,0.837209302325581,828.651162790698,275.841386766703,5,20,60,"NoLoad","Speed_Max",36,782.555555555556,242.720703036514,7,1065.71428571429,332.631785555597
19050,"NoLoad_Speed_Mid",750,42,0.928571428571429,892.095238095238,264.586083508803,10,20,60,"NoLoad","Speed_Mid",39,885.666666666667,269.576113002904,3,975.666666666667,207.562841889711
19051,"Load_Accuracy_Max",860,48,0.979166666666667,692.791666666667,291.425546736693,80,20,60,"Load","Accuracy_Max",47,691.042553191489,294.321397635957,1,775,NA
19051,"Load_Accuracy_Mid",900,48,0.979166666666667,682.291666666667,199.784666880538,40,20,60,"Load","Accuracy_Mid",47,676.595744680851,197.965813866333,1,950,NA
19051,"Load_Neutral",830,51.5,0.902714932126697,604.351809954751,218.747533445375,20,20,60,"Load","Neutral",93,602.860215053763,208.741497686672,10,617.3,308.9789816656
19051,"Load_Speed_Max",925,50,0.94,640.34,450.830101035856,5,20,60,"Load","Speed_Max",47,643.510638297872,457.406529883449,3,590.666666666667,404.42098527813
19051,"Load_Speed_Mid",710,49,0.816326530612245,654.632653061224,260.459425333195,10,20,60,"Load","Speed_Mid",40,660.65,262.394941125406,9,627.888888888889,265.329721499705
19051,"NoLoad_Accuracy_Max",760,53,0.943396226415094,576.471698113208,147.164952424349,80,20,60,"NoLoad","Accuracy_Max",50,580.9,149.806167279929,3,502.666666666667,67.8847061813877
19051,"NoLoad_Accuracy_Mid",820,50,0.94,645.44,189.749583635369,40,20,60,"NoLoad","Accuracy_Mid",47,644.446808510638,187.267050481698,3,661,274.131355375484
19051,"NoLoad_Neutral",840,53,0.896367521367521,583.076210826211,152.220185686338,20,20,60,"NoLoad","Neutral",95,578.863157894737,148.003709738319,11,614.545454545455,218.551304565479
19051,"NoLoad_Speed_Max",1045,56,0.946428571428571,531.5,139.176278020489,5,20,60,"NoLoad","Speed_Max",53,532.735849056604,134.141020936263,3,509.666666666667,253.142910888955
19051,"NoLoad_Speed_Mid",880,56,0.857142857142857,518.339285714286,112.02439292578,10,20,60,"NoLoad","Speed_Mid",48,514.729166666667,114.330565817466,8,540,101.053027098223
19052,"Load_Accuracy_Max",280,39,0.871794871794872,966.692307692308,357.1205128927,80,20,60,"Load","Accuracy_Max",34,981.117647058824,367.207625581503,5,868.6,292.138323401775
19052,"Load_Accuracy_Mid",500,40,0.875,912.825,426.430977821914,40,20,60,"Load","Accuracy_Mid",35,901.4,430.544812178846,5,992.8,433.821046054707
19052,"Load_Neutral",630,41.5,0.875440658049354,876.362514688602,456.211747248987,20,20,60,"Load","Neutral",73,868.72602739726,525.074049282416,10,796.9,269.543832757824
19052,"Load_Speed_Max",745,41,0.926829268292683,880.365853658537,267.53932010992,5,20,60,"Load","Speed_Max",38,886.947368421053,255.188848710913,3,797,464.276857058372
19052,"Load_Speed_Mid",510,33,0.848484848484849,1220.9696969697,487.862140161573,10,20,60,"Load","Speed_Mid",28,1146.28571428571,379.602897497319,5,1639.2,820.805823566086
19052,"NoLoad_Accuracy_Max",520,46,0.91304347826087,747.695652173913,252.583000181478,80,20,60,"NoLoad","Accuracy_Max",42,745.190476190476,260.301161236809,4,774,173.072239252862
19052,"NoLoad_Accuracy_Mid",580,50,0.86,642.42,245.449283177289,40,20,60,"NoLoad","Accuracy_Mid",43,618.604651162791,234.2153200974,7,788.714285714286,281.019995899292
19052,"NoLoad_Neutral",660,47,0.85054347826087,718.88088768116,278.713285481684,20,20,60,"NoLoad","Neutral",80,712.6625,286.955469740383,14,751.571428571429,225.082793070158
19052,"NoLoad_Speed_Max",760,56,0.732142857142857,502.392857142857,203.715994692382,5,20,60,"NoLoad","Speed_Max",41,520.878048780488,215.080007801975,15,451.866666666667,164.714413744633
19052,"NoLoad_Speed_Mid",750,51,0.823529411764706,621.490196078431,150.129194036206,10,20,60,"NoLoad","Speed_Mid",42,633.714285714286,148.777667763301,9,564.444444444444,151.594946412398
19053,"Load_Accuracy_Max",540,47,0.914893617021277,712.617021276596,272.859061660163,80,20,60,"Load","Accuracy_Max",43,727.302325581395,279.430162915251,4,554.75,110.185827884836
19053,"Load_Accuracy_Mid",780,48,0.9375,673.0625,199.801221031134,40,20,60,"Load","Accuracy_Mid",45,672.377777777778,188.885401631505,3,683.333333333333,391.221591087881
19053,"Load_Neutral",900,49,0.959183673469388,657.80612244898,228.914428046345,20,20,60,"Load","Neutral",94,664.425531914894,227.763718794668,4,502.25,210.046621808905
19053,"Load_Speed_Max",860,48,0.916666666666667,677.791666666667,283.024317302237,5,20,60,"Load","Speed_Max",44,672.840909090909,266.211661127165,4,732.25,484.608690938713
19053,"Load_Speed_Mid",740,46,0.869565217391304,722.45652173913,553.523850997577,10,20,60,"Load","Speed_Mid",40,756.525,584.628831955666,6,495.333333333333,142.624916009324
19053,"NoLoad_Accuracy_Max",720,51,0.941176470588235,632.058823529412,188.958134174182,80,20,60,"NoLoad","Accuracy_Max",48,631.4375,194.540802070447,3,642,55.5697759577992
19053,"NoLoad_Accuracy_Mid",880,53,0.943396226415094,577.811320754717,150.139941977704,40,20,60,"NoLoad","Accuracy_Mid",50,585.8,150.031697331203,3,444.666666666667,80.1394617734193
19053,"NoLoad_Neutral",880,53,0.915242165242165,584.47329059829,140.50501838842,20,20,60,"NoLoad","Neutral",97,583.298969072165,137.776930591056,9,591.333333333333,194.370779696949
19053,"NoLoad_Speed_Max",830,55,0.763636363636364,487,189.238043313275,5,20,60,"NoLoad","Speed_Max",42,516.285714285714,189.499505850992,13,392.384615384615,160.490154662489
19053,"NoLoad_Speed_Mid",960,54,0.925925925925926,564.222222222222,98.9905020537594,10,20,60,"NoLoad","Speed_Mid",50,566.02,100.325285233299,4,541.75,89.4031132940384
19054,"Load_Accuracy_Max",680,39,0.974358974358974,973.179487179487,459.054971584637,80,20,60,"Load","Accuracy_Max",38,977.236842105263,464.507843835121,1,819,NA
19054,"Load_Accuracy_Mid",520,53,0.830188679245283,560.22641509434,129.716353501582,40,20,60,"Load","Accuracy_Mid",44,554.477272727273,124.906567618558,9,588.333333333333,156.338574894362
19054,"Load_Neutral",840,51,0.911923076923077,602.425,184.15576832653,20,20,60,"Load","Neutral",93,603.193548387097,192.542499998703,9,589.555555555556,118.386138452852
19054,"Load_Speed_Max",955,54,0.907407407407407,529.462962962963,117.762907470735,5,20,60,"Load","Speed_Max",49,533.265306122449,120.879377809417,5,492.2,80.6083122264696
19054,"Load_Speed_Mid",950,49,0.979591836734694,655.408163265306,200.333775481419,10,20,60,"Load","Speed_Mid",48,658.0625,201.581133684298,1,528,NA
19054,"NoLoad_Accuracy_Max",600,45,0.933333333333333,776.377777777778,616.46224130071,80,20,60,"NoLoad","Accuracy_Max",42,781.119047619048,635.998665529393,3,710,247.691340179668
19054,"NoLoad_Accuracy_Mid",800,52,0.923076923076923,602.115384615385,144.86527261443,40,20,60,"NoLoad","Accuracy_Mid",48,590.145833333333,134.162649713004,4,745.75,212.054041854115
19054,"NoLoad_Neutral",870,54.5,0.89949494949495,557.028114478115,100.542278062318,20,20,60,"NoLoad","Neutral",98,560.071428571429,104.236176121206,11,529.363636363636,67.6140114580887
19054,"NoLoad_Speed_Max",940,57,0.859649122807018,511.80701754386,67.7973447110924,5,20,60,"NoLoad","Speed_Max",49,507.30612244898,65.4755692611223,8,539.375,79.7781522186906
19054,"NoLoad_Speed_Mid",950,55,0.909090909090909,541.945454545455,141.619131656632,10,20,60,"NoLoad","Speed_Mid",50,543.96,145.353048029371,5,521.8,106.703795621337
19055,"Load_Accuracy_Max",780,39,1,977.051282051282,437.471138820545,80,20,60,"Load","Accuracy_Max",39,977.051282051282,437.471138820545,0,NA,NA
19055,"Load_Accuracy_Mid",680,37,0.972972972972973,1037.78378378378,579.834848859528,40,20,60,"Load","Accuracy_Mid",36,1036.36111111111,587.994370856329,1,1089,NA
19055,"Load_Neutral",860,43,1,825.186046511628,315.11471219488,20,20,60,"Load","Neutral",86,825.186046511628,314.900414197621,0,NA,NA
19055,"Load_Speed_Max",735,38,0.973684210526316,998.842105263158,481.399004384591,5,20,60,"Load","Speed_Max",37,976.324324324324,467.310630336209,1,1832,NA
19055,"Load_Speed_Mid",740,40,0.95,923.15,384.862449620907,10,20,60,"Load","Speed_Mid",38,935.842105263158,390.169230526322,2,682,147.078210486802
19055,"NoLoad_Accuracy_Max",920,51,0.980392156862745,626.078431372549,103.35566615087,80,20,60,"NoLoad","Accuracy_Max",50,629.52,101.41010697124,1,454,NA
19055,"NoLoad_Accuracy_Mid",820,50,0.94,642.22,189.957491485407,40,20,60,"NoLoad","Accuracy_Mid",47,642.212765957447,192.0309006124,3,642.333333333333,189.497581339006
19055,"NoLoad_Neutral",1030,54.5,0.972708894878706,551.130390835579,113.262098505891,20,20,60,"NoLoad","Neutral",106,551.424528301887,118.993312986443,3,513,56.4269439186635
19055,"NoLoad_Speed_Max",865,52,0.865384615384615,601.5,179.047205956374,5,20,60,"NoLoad","Speed_Max",45,586.733333333333,173.797348028726,7,696.428571428571,197.069240913659
19055,"NoLoad_Speed_Mid",970,53,0.943396226415094,588.452830188679,127.286709385021,10,20,60,"NoLoad","Speed_Mid",50,599.16,120.352604407861,3,410,125.455171276436
19056,"Load_Accuracy_Max",440,37,0.918918918918919,1046.83783783784,540.316805911819,80,20,60,"Load","Accuracy_Max",34,1036.29411764706,503.259348129273,3,1166.33333333333,1026.0103963086
19056,"Load_Accuracy_Mid",540,39,0.897435897435897,968,405.573408242804,40,20,60,"Load","Accuracy_Mid",35,972.142857142857,416.700494985317,4,931.75,337.154143777986
19056,"Load_Neutral",700,41,0.926654740608229,887.913237924866,429.213806424349,20,20,60,"Load","Neutral",76,902.486842105263,432.499171280009,6,667,349.259216055926
19056,"Load_Speed_Max",705,44,0.840909090909091,805.227272727273,409.381204260395,5,20,60,"Load","Speed_Max",37,804.486486486486,411.366261622415,7,809.142857142857,430.962267710847
19056,"Load_Speed_Mid",600,36,0.888888888888889,1109.97222222222,480.845890733113,10,20,60,"Load","Speed_Mid",32,1077.21875,422.849682311156,4,1372,864.219493724444
19056,"NoLoad_Accuracy_Max",440,37,0.918918918918919,1083.2972972973,511.537652837277,80,20,60,"NoLoad","Accuracy_Max",34,1071.55882352941,513.332970750155,3,1216.33333333333,577.283581382091
19056,"NoLoad_Accuracy_Mid",540,33,0.93939393939394,1262.18181818182,802.535959262319,40,20,60,"NoLoad","Accuracy_Mid",31,1275.38709677419,823.928139156944,2,1057.5,393.858477120907
19056,"NoLoad_Neutral",610,44.5,0.843276036400404,808.69084934277,355.663047990924,20,20,60,"NoLoad","Neutral",75,807.24,319.825283384369,14,806.928571428571,534.562576647158
19056,"NoLoad_Speed_Max",815,47,0.893617021276596,723.042553191489,403.187622601967,5,20,60,"NoLoad","Speed_Max",42,686.785714285714,225.588826884957,5,1027.6,1103.66222187769
19056,"NoLoad_Speed_Mid",740,40,0.95,959.075,499.134707037319,10,20,60,"NoLoad","Speed_Mid",38,928.447368421053,449.38737261806,2,1541,1237.43686707646
19057,"Load_Accuracy_Max",420,41,0.902439024390244,882.487804878049,384.359019794724,80,20,60,"Load","Accuracy_Max",37,843.432432432432,344.837042072898,4,1243.75,591.59184972975
19057,"Load_Accuracy_Mid",700,47,0.914893617021277,700.765957446809,196.754339520782,40,20,60,"Load","Accuracy_Mid",43,708.53488372093,201.552941035022,4,617.25,121.21434183572
19057,"Load_Neutral",870,46.5,0.967622571692877,708.452127659574,210.139109213195,20,20,60,"Load","Neutral",90,707.466666666667,210.674635984475,3,737.333333333333,204.480642930653
19057,"Load_Speed_Max",815,42,0.976190476190476,860.404761904762,329.949667966806,5,20,60,"Load","Speed_Max",41,866.585365853659,331.577967875563,1,607,NA
19057,"Load_Speed_Mid",890,46,0.978260869565217,723.826086956522,243.594317060862,10,20,60,"Load","Speed_Mid",45,728.422222222222,244.321461946503,1,517,NA
19057,"NoLoad_Accuracy_Max",840,52,0.961538461538462,599.884615384615,87.534341461756,80,20,60,"NoLoad","Accuracy_Max",50,602.96,87.3940081073138,2,523,65.0538238691624
19057,"NoLoad_Accuracy_Mid",860,52,0.942307692307692,605.826923076923,88.2926775445958,40,20,60,"NoLoad","Accuracy_Mid",49,605.612244897959,85.4092638238896,3,609.333333333333,153.929637605412
19057,"NoLoad_Neutral",940,51,0.960769230769231,634.070384615385,156.616989366556,20,20,60,"NoLoad","Neutral",98,627.469387755102,140.833688864593,4,785.5,403.039700277777
19057,"NoLoad_Speed_Max",970,51,0.96078431372549,615.607843137255,119.365167185636,5,20,60,"NoLoad","Speed_Max",49,616.612244897959,121.161362159197,2,591,80.6101730552664
19057,"NoLoad_Speed_Mid",920,52,0.923076923076923,603.980769230769,143.893954741544,10,20,60,"NoLoad","Speed_Mid",48,613.125,145.457257741878,4,494.25,55.93076076722
19058,"Load_Accuracy_Max",320,21,0.952380952380952,2206.61904761905,1002.71937630578,80,20,60,"Load","Accuracy_Max",20,2173.85,1017.16640852497,1,2862,NA
19058,"Load_Accuracy_Mid",340,32,0.84375,1281.34375,470.966652430523,40,20,60,"Load","Accuracy_Mid",27,1310.85185185185,506.675491938434,5,1122,112.820654137441
19058,"Load_Neutral",580,31,0.967195767195767,1389.43597883598,690.625445112882,20,20,60,"Load","Neutral",60,1356.95,740.348713645543,2,1270.5,613.061579288737
19058,"Load_Speed_Max",700,45,0.822222222222222,771.2,274.705180809602,5,20,60,"Load","Speed_Max",37,800.945945945946,278.264856441359,8,633.625,223.187261221219
19058,"Load_Speed_Mid",770,40,0.975,929.9,358.010012752114,10,20,60,"Load","Speed_Mid",39,939.205128205128,357.756251884552,1,567,NA
19058,"NoLoad_Accuracy_Max",440,47,0.893617021276596,741.212765957447,277.573956942322,80,20,60,"NoLoad","Accuracy_Max",42,742.261904761905,292.873406392409,5,732.4,82.1175986010307
19058,"NoLoad_Accuracy_Mid",300,45,0.777777777777778,782.733333333333,299.957981905951,40,20,60,"NoLoad","Accuracy_Mid",35,713.685714285714,213.07189775624,10,1024.4,430.040101489255
19058,"NoLoad_Neutral",630,47.5,0.83340727595386,709.757763975155,255.360507587729,20,20,60,"NoLoad","Neutral",79,669.291139240506,166.043333230286,16,902.375,485.17692649177
19058,"NoLoad_Speed_Max",750,55,0.745454545454545,538.654545454545,141.36139896678,5,20,60,"NoLoad","Speed_Max",41,557.341463414634,143.782058991395,14,483.928571428571,122.758966011708
19058,"NoLoad_Speed_Mid",850,50,0.9,658.78,201.214505299338,10,20,60,"NoLoad","Speed_Mid",45,673.644444444444,204.326071352491,5,525,108.956413303669
19059,"Load_Accuracy_Max",860,48,0.979166666666667,684.9375,251.611436861631,80,20,60,"Load","Accuracy_Max",47,688.148936170213,253.335314718707,1,534,NA
19059,"Load_Accuracy_Mid",600,45,0.888888888888889,745.111111111111,296.475909049057,40,20,60,"Load","Accuracy_Mid",40,742.525,292.701649754884,5,765.8,361.872491355726
19059,"Load_Neutral",700,45,0.888888888888889,752.977777777778,339.102525913758,20,20,60,"Load","Neutral",80,765.4375,364.059038324934,10,653.3,134.744243331992
19059,"Load_Speed_Max",745,46,0.847826086956522,718.934782608696,367.64199990836,5,20,60,"Load","Speed_Max",39,730.564102564103,391.271126543905,7,654.142857142857,195.802135306222
19059,"Load_Speed_Mid",750,45,0.888888888888889,763.266666666667,197.493889433664,10,20,60,"Load","Speed_Mid",40,759.7,195.163205863905,5,791.8,237.766061497431
19059,"NoLoad_Accuracy_Max",520,36,0.944444444444444,1096.83333333333,295.658635205246,80,20,60,"NoLoad","Accuracy_Max",34,1076.91176470588,280.734034344281,2,1435.5,464.569155239562
19059,"NoLoad_Accuracy_Mid",560,49,0.857142857142857,667.448979591837,291.796808671754,40,20,60,"NoLoad","Accuracy_Mid",42,677.904761904762,312.985997467806,7,604.714285714286,80.070207288592
19059,"NoLoad_Neutral",780,47,0.918636363636364,731.628181818182,251.601118395738,20,20,60,"NoLoad","Neutral",86,730.313953488372,267.189039121254,8,690.625,186.179588799939
19059,"NoLoad_Speed_Max",840,52,0.846153846153846,612.25,167.606082883671,5,20,60,"NoLoad","Speed_Max",44,598.886363636364,93.1830446472166,8,685.75,379.517268570031
19059,"NoLoad_Speed_Mid",890,49,0.938775510204082,662.061224489796,183.594481598629,10,20,60,"NoLoad","Speed_Mid",46,665.086956521739,187.702581061631,3,615.666666666667,113.142977392913
19060,"Load_Accuracy_Max",740,42,0.976190476190476,855.738095238095,413.938964484179,80,20,60,"Load","Accuracy_Max",41,848.487804878049,416.372556849705,1,1153,NA
19060,"Load_Accuracy_Mid",620,40,0.925,919.625,676.561240524084,40,20,60,"Load","Accuracy_Mid",37,834.945945945946,380.570401279882,3,1964,2133.09446579377
19060,"Load_Neutral",810,46.5,0.935296846011132,723.287337662338,356.628490354338,20,20,60,"Load","Neutral",87,694.413793103448,351.502871460174,6,1084.33333333333,474.32211277429
19060,"Load_Speed_Max",840,42,1,847.666666666667,567.296570035448,5,20,60,"Load","Speed_Max",42,847.666666666667,567.296570035448,0,NA,NA
